Round;Timestamp;AccX;AccY;
0;03:57:48:791;-8.133103;4.4723687;
0;03:57:48:800;-2.0386627;5.507861;
0;03:57:48:810;0.9660604;3.394978;
0;03:57:48:820;-2.586935;6.775591;
0;03:57:48:830;0.32920274;5.481525;
0;03:57:48:840;2.5270798;4.1934443;
0;03:57:48:850;0.6775591;-1.9572599;
0;03:57:48:860;3.690662;-0.17118542;
0;03:57:48:870;5.8215013;4.525041;
0;03:57:48:880;-5.1080294;4.349067;
0;03:57:48:890;5.1942205;8.514978;
0;03:57:48:900;6.4751186;1.7381904;
0;03:57:48:910;-2.0901382;-1.7022774;
0;03:57:48:920;-4.5286326;-1.2892777;
0;03:57:48:930;-0.50876784;2.8060043;
0;03:57:48:940;6.3685765;6.752846;
0;03:57:48:951;-0.46088383;1.270124;
0;03:57:48:962;2.552219;4.5166616;
0;03:57:48:972;1.8567034;-3.180697;
0;03:57:48:982;-10.116699;0.40581718;
0;03:57:48:993;-1.7884687;-1.3144168;
0;03:57:49:002;8.388085;3.3842041;
0;03:57:49:012;2.9245174;5.0002904;
0;03:57:49:022;4.5262384;0.40940848;
0;03:57:49:032;-0.60693014;-2.0949266;
0;03:57:49:042;2.1523874;1.127669;
0;03:57:49:052;0.16519992;1.8950106;
0;03:57:49:062;-3.3626564;4.3023806;
0;03:57:49:073;-3.833117;-1.9452889;
0;03:57:49:082;-2.1547816;-0.076614454;
0;03:57:49:093;0.6428431;-2.2697031;
0;03:57:49:103;-0.439336;-1.8495208;
0;03:57:49:113;-1.42455;-0.2705448;
0;03:57:49:124;4.2185836;5.3857565;
0;03:57:49:135;-2.6970682;1.6783354;
0;03:57:49:146;-2.8048072;1.42455;
0;03:57:49:156;2.328361;-2.1547816;
0;03:57:49:165;-0.5470751;0.59256494;
0;03:57:49:176;2.1511903;-1.1755531;
0;03:57:49:186;1.4269443;1.4209588;
0;03:57:49:196;2.9616275;0.93134445;
0;03:57:49:207;-6.2871737;-1.3814543;
0;03:57:49:218;0.94211835;-0.25857377;
0;03:57:49:229;0.33758244;-1.2354081;
0;03:57:49:239;-2.1583729;4.771644;
0;03:57:49:249;-1.2797008;-2.9867666;
0;03:57:49:259;4.7429137;-0.6943185;
0;03:57:49:269;-1.436521;0.07062895;
0;03:57:49:280;-7.323863;1.7753005;
0;03:57:49:290;-6.30513;-0.0011971008;
0;03:57:49:301;-0.5626374;1.7525556;
0;03:57:49:311;3.6655228;-2.2230163;
0;03:57:49:321;-0.7517793;-0.47405192;
0;03:57:49:332;4.1419687;0.5614403;
0;03:57:49:343;3.2237926;2.7030537;
0;03:57:49:354;-0.32321724;0.11731588;
0;03:57:49:364;0.5386954;-0.31483752;
0;03:57:49:374;0.073023155;-0.7649474;
0;03:57:49:385;1.1899183;-3.0801406;
0;03:57:49:396;-4.343082;-0.005985504;
0;03:57:49:407;-0.107739076;2.3307555;
0;03:57:49:421;-1.8770541;0.8319851;
0;03:57:49:432;0.6991069;1.3718776;
0;03:57:49:443;3.9576154;-0.015562311;
0;03:57:49:454;-3.9875429;-1.4161704;
0;03:57:49:463;5.195418;-1.4784195;
0;03:57:49:474;5.995081;-2.730587;
0;03:57:49:484;3.1531637;-1.4185646;
0;03:57:49:495;-0.20231004;-1.5502456;
0;03:57:49:506;2.1894975;8.572439;
0;03:57:49:515;-2.6803088;-1.400608;
0;03:57:49:526;0.6464345;0.7433996;
0;03:57:49:535;2.908955;0.79846627;
0;03:57:49:546;-1.7369933;-0.142455;
0;03:57:49:556;2.2637177;4.9895163;
0;03:57:49:567;-5.9531827;0.23822308;
0;03:57:49:578;-7.705738;4.2293572;
0;03:57:49:589;3.4045548;3.4009635;
0;03:57:49:600;-0.92775315;-1.9213469;
0;03:57:49:612;1.8243817;5.2875943;
0;03:57:49:622;-8.717288;1.8447324;
0;03:57:49:633;-4.27365;1.8171991;
0;03:57:49:643;1.9369092;1.2282255;
0;03:57:49:654;4.6782703;0.7206547;
0;03:57:49:664;0.6368576;5.046977;
0;03:57:49:674;0.7158663;-1.8171991;
0;03:57:49:685;-5.08289;4.915296;
0;03:57:49:696;-0.46567222;2.171541;
0;03:57:49:706;-1.4173675;8.981848;
0;03:57:49:717;3.2716765;5.2863975;
0;03:57:49:727;-4.1838675;-0.5255273;
0;03:57:49:737;3.2142158;1.6831238;
0;03:57:49:748;2.2972364;5.386954;
0;03:57:49:758;-4.7381253;7.4387846;
0;03:57:49:769;-4.534618;4.675876;
0;03:57:49:780;2.0398598;5.659893;
0;03:57:49:790;-3.6415808;2.3786395;
0;03:57:49:800;3.7241807;9.41879;
0;03:57:49:810;-2.0362685;3.003526;
0;03:57:49:820;-4.1814733;5.864597;
0;03:57:49:830;3.0119057;3.7433343;
0;03:57:49:841;-10.13705;1.4544775;
0;03:57:49:851;3.0071173;4.0258503;
0;03:57:49:862;2.8562827;3.1591492;
0;03:57:49:873;-1.6531962;2.5773582;
0;03:57:49:884;-9.64145;5.6407394;
0;03:57:49:895;-0.033518825;0.5626374;
0;03:57:49:906;2.7832594;-3.9384618;
0;03:57:49:915;0.65242;-0.61530983;
0;03:57:49:926;1.4257472;11.346122;
0;03:57:49:936;-0.79607207;7.7344685;
0;03:57:49:947;10.832565;6.1195793;
0;03:57:49:958;-2.7257986;1.7381904;
0;03:57:49:968;-4.9200845;-0.2825158;
0;03:57:49:978;-7.035362;0.32680854;
0;03:57:49:988;5.389348;2.5354595;
0;03:57:49:998;5.1846437;7.8493905;
0;03:57:50:009;1.021127;0.58657944;
0;03:57:50:020;5.0541596;2.4516625;
0;03:57:50:031;-6.945579;-2.327164;
0;03:57:50:041;2.2732944;0.34117374;
0;03:57:50:052;1.3455414;3.2668881;
0;03:57:50:063;-3.1016884;-1.5310919;
0;03:57:50:073;7.620744;6.1530986;
0;03:57:50:083;1.3299791;-1.2725182;
0;03:57:50:093;4.584896;0.62249243;
0;03:57:50:104;2.1559787;-0.61291564;
0;03:57:50:114;-0.7469909;-1.9680338;
0;03:57:50:124;4.5645456;2.730587;
0;03:57:50:134;-11.130644;0.12449849;
0;03:57:50:144;-7.94037;-0.20949265;
0;03:57:50:154;-1.9596541;-4.545392;
0;03:57:50:165;-7.145495;-2.1499932;
0;03:57:50:176;0.142455;3.3997664;
0;03:57:50:187;-1.3970166;-5.106832;
0;03:57:50:198;-9.108741;-3.9791632;
0;03:57:50:209;-11.024101;-8.51019;
0;03:57:50:220;-8.726865;-3.8043866;
0;03:57:50:230;-8.250419;-5.9388175;
0;03:57:50:241;-10.360908;-2.3056161;
0;03:57:50:251;-8.7771435;-6.7827735;
0;03:57:50:261;-11.076775;-0.50278234;
0;03:57:50:272;-9.044097;0.7038953;
0;03:57:50:282;1.602918;-1.7597382;
0;03:57:50:293;-3.5063083;-3.5817258;
0;03:57:50:304;-11.518504;3.9863458;
0;03:57:50:314;9.77792;-4.4460325;
0;03:57:50:325;-10.163386;4.1575313;
0;03:57:50:335;-3.6475663;-8.528147;
0;03:57:50:345;-11.413159;2.5713725;
0;03:57:50:355;4.596867;1.3575124;
0;03:57:50:366;-9.113529;-3.288436;
0;03:57:50:376;0.007182605;-2.1631613;
0;03:57:50:387;-18.520348;-2.7461493;
0;03:57:50:397;-12.600683;-2.7269957;
0;03:57:50:408;-5.197812;-0.5422867;
0;03:57:50:419;-9.24521;-8.025364;
0;03:57:50:429;-14.255077;0.92057055;
0;03:57:50:440;-12.528857;-3.8127663;
0;03:57:50:451;-2.3953989;-5.201403;
0;03:57:50:461;-11.6908865;-0.41180268;
0;03:57:50:472;-4.209007;-2.9747956;
0;03:57:50:482;-9.633071;-3.4440591;
0;03:57:50:493;-11.018116;3.3303347;
0;03:57:50:503;-9.012972;-5.2241483;
0;03:57:50:514;-10.372879;-0.08259996;
0;03:57:50:525;-10.07121;-0.5434838;
0;03:57:50:536;-4.0533834;5.9400144;
0;03:57:50:546;-17.146076;-5.7424927;
0;03:57:50:557;-9.325416;1.8866309;
0;03:57:50:568;-8.176199;-1.4760253;
0;03:57:50:579;-7.207744;3.9312792;
0;03:57:50:590;-3.9085343;1.5263035;
0;03:57:50:600;1.8926164;8.48146;
0;03:57:50:610;-6.7767878;0.34237084;
0;03:57:50:620;-2.8179753;11.947066;
0;03:57:50:630;-8.240842;0.6955156;
0;03:57:50:640;-10.0269165;2.244564;
0;03:57:50:651;4.5561657;8.919599;
0;03:57:50:662;0.39624038;12.968193;
0;03:57:50:673;-0.29448682;13.536817;
0;03:57:50:683;-7.8086886;-0.47524905;
0;03:57:50:694;-5.1906295;7.5441294;
0;03:57:50:704;-4.1240125;6.205771;
0;03:57:50:714;-1.0606314;5.674258;
0;03:57:50:724;1.9776106;15.969325;
0;03:57:50:734;-0.21188685;5.109226;
0;03:57:50:745;-2.8431146;3.083732;
0;03:57:50:755;-6.307524;4.179079;
0;03:57:50:766;-3.1411927;7.0090256;
0;03:57:50:777;-1.6831238;5.6539073;
0;03:57:50:788;-3.300407;3.9264908;
0;03:57:50:798;-4.6339774;2.9125464;
0;03:57:50:808;5.825093;6.2345014;
0;03:57:50:818;2.0949266;-1.5047557;
0;03:57:50:831;-2.9005754;6.405687;
0;03:57:50:841;-6.9024835;-0.1340753;
0;03:57:50:852;-1.3371617;8.971074;
0;03:57:50:862;3.705027;3.7708676;
0;03:57:50:873;1.5478514;8.690952;
0;03:57:50:882;-8.607155;2.8622682;
0;03:57:50:893;0.39264908;2.3511062;
0;03:57:50:903;-3.0609868;-2.2110453;
0;03:57:50:913;2.7641058;0.9540894;
0;03:57:50:923;-3.1914709;9.1255;
0;03:57:50:933;-0.51954174;4.3179426;
0;03:57:50:943;1.5298948;7.9224133;
0;03:57:50:954;-6.3338604;-1.0737995;
0;03:57:50:965;-5.5748987;2.493561;
0;03:57:50:975;0.36631286;0.7326257;
0;03:57:50:985;4.0318356;7.133524;
0;03:57:50:995;-4.2556934;8.828619;
0;03:57:51:006;-3.4991257;3.7110126;
0;03:57:51:017;-7.1047935;-0.78170687;
0;03:57:51:028;4.9105077;0.46447513;
0;03:57:51:038;-2.243367;3.1136594;
0;03:57:51:049;-3.9456444;5.616797;
0;03:57:51:059;-1.1336545;11.168951;
0;03:57:51:069;-3.8019924;1.934515;
0;03:57:51:079;6.1782374;5.246893;
0;03:57:51:090;-5.779603;-0.5231331;
0;03:57:51:101;0.019153614;5.445612;
0;03:57:51:112;0.6380547;4.501099;
0;03:57:51:123;-5.78918;2.7102363;
0;03:57:51:133;-4.0677485;3.4871547;
0;03:57:51:144;-1.7046716;3.4368765;
0;03:57:51:154;4.176685;4.8745947;
0;03:57:51:165;-0.29328972;-0.7410054;
0;03:57:51:176;4.8853683;-0.94690675;
0;03:57:51:186;-2.0338743;0.1352724;
0;03:57:51:196;-0.18794483;1.9201498;
0;03:57:51:207;5.9603653;4.473566;
0;03:57:51:218;-1.0821792;4.3059716;
0;03:57:51:228;1.8423382;7.477092;
0;03:57:51:238;-3.3063924;-2.0446482;
0;03:57:51:248;1.508347;7.7308774;
0;03:57:51:259;5.342661;-1.9309237;
0;03:57:51:270;-2.2888567;9.416395;
0;03:57:51:280;6.137536;0.6596026;
0;03:57:51:291;-10.754754;-3.1866825;
0;03:57:51:301;-8.438364;-0.5255273;
0;03:57:51:312;-6.92044;3.2573113;
0;03:57:51:322;-2.0458453;3.8019924;
0;03:57:51:333;4.238934;1.1647792;
0;03:57:51:343;-0.80564886;0.78649527;
0;03:57:51:354;13.25071;0.7314286;
0;03:57:51:365;-8.1402855;3.052607;
0;03:57:51:376;7.156269;0.24420857;
0;03:57:51:387;-4.179079;-1.5957354;
0;03:57:51:398;0.45609543;1.0474633;
0;03:57:51:409;3.429694;2.6659436;
0;03:57:51:419;9.726444;1.7980455;
0;03:57:51:429;-2.6144683;-4.1240125;
0;03:57:51:440;-1.6986861;-6.6427126;
0;03:57:51:450;-3.5889084;-3.6248214;
0;03:57:51:461;-1.6639702;-4.545392;
0;03:57:51:471;4.7165775;-1.6400281;
0;03:57:51:482;6.5505357;5.0134583;
0;03:57:51:492;9.375694;-3.2992098;
0;03:57:51:503;-3.2968156;4.997896;
0;03:57:51:513;-0.05865794;2.3092074;
0;03:57:51:524;-4.0294414;-2.4540567;
0;03:57:51:534;-0.19991584;-5.1259856;
0;03:57:51:545;10.356119;-2.7593174;
0;03:57:51:555;-2.7521348;-1.9608512;
0;03:57:51:566;2.9652188;2.7988217;
0;03:57:51:577;-0.9672575;1.4999673;
0;03:57:51:586;5.7065797;1.79206;
0;03:57:51:597;1.6591818;-0.37828386;
0;03:57:51:606;-14.129381;-12.41633;
0;03:57:51:616;7.0820484;-6.9599442;
0;03:57:51:626;-1.8579005;-13.753491;
0;03:57:51:636;8.365341;-3.028665;
0;03:57:51:647;6.9168487;-5.6658783;
0;03:57:51:658;2.0254946;-5.5725045;
0;03:57:51:668;-6.2871737;12.334928;
0;03:57:51:679;-3.0262709;-2.813187;
0;03:57:51:689;0.45130703;5.7424927;
0;03:57:51:699;7.019799;4.867412;
0;03:57:51:710;3.8307228;-0.29688102;
0;03:57:51:720;16.030378;2.8287494;
0;03:57:51:730;-1.4317327;-18.127699;
0;03:57:51:740;-18.183962;-14.135366;
0;03:57:51:750;5.517438;-5.7664347;
0;03:57:51:760;14.111424;-6.3985043;
0;03:57:51:770;38.69868;-2.3211784;
0;03:57:51:780;4.23654;-9.089587;
0;03:57:51:791;15.088259;-3.1842883;
0;03:57:51:802;6.3721676;15.514427;
0;03:57:51:813;1.6124948;7.275979;
0;03:57:51:824;-18.921375;-4.1419687;
0;03:57:51:835;5.7736173;10.444705;
0;03:57:51:846;-6.728904;5.985504;
0;03:57:51:856;7.2352777;0.40342298;
0;03:57:51:867;13.936648;-6.813898;
0;03:57:51:877;27.704506;2.8455088;
0;03:57:51:888;3.3889925;-8.823831;
0;03:57:51:898;16.35599;4.4927197;
0;03:57:51:909;14.360422;-0.8882488;
0;03:57:51:920;11.951855;-9.015367;
0;03:57:51:931;-1.0043676;6.4164605;
0;03:57:51:941;33.294968;-14.220361;
0;03:57:51:952;12.375628;-23.172281;
0;03:57:51:963;-4.747702;4.4687777;
0;03:57:51:973;34.703953;-2.9412768;
0;03:57:51:983;-2.2828712;-3.98874;
0;03:57:51:994;17.594988;3.7948096;
0;03:57:52:005;-0.7637503;7.1885905;
0;03:57:52:015;12.454638;-3.4727895;
0;03:57:52:026;-2.6898856;4.831499;
0;03:57:52:036;16.777369;8.143877;
0;03:57:52:047;20.63802;-18.137276;
0;03:57:52:057;19.701885;11.88362;
0;03:57:52:068;18.735825;-1.5682021;
0;03:57:52:079;25.08884;3.3626564;
0;03:57:52:089;10.072407;-5.446809;
0;03:57:52:100;-6.576872;8.963891;
0;03:57:52:110;3.0095115;2.1775265;
0;03:57:52:121;-12.459426;-5.16549;
0;03:57:52:131;13.164518;9.054871;
0;03:57:52:141;8.651448;-10.4171715;
0;03:57:52:152;8.341399;3.7684734;
0;03:57:52:162;1.0977415;-9.719262;
0;03:57:52:173;25.911247;-8.2169;
0;03:57:52:183;11.614272;-3.1124623;
0;03:57:52:194;19.600132;-11.876437;
0;03:57:52:204;24.323893;-4.0665517;
0;03:57:52:214;-0.30526072;-7.120356;
0;03:57:52:225;23.469162;1.1408371;
0;03:57:52:236;0.5422867;-10.699687;
0;03:57:52:246;-13.006501;4.602853;
0;03:57:52:257;-1.5346833;-6.827066;
0;03:57:52:268;1.0307038;7.574057;
0;03:57:52:278;4.2664676;6.363788;
0;03:57:52:288;15.3288765;2.5366566;
0;03:57:52:299;9.024943;0.31244332;
0;03:57:52:309;14.587871;5.007473;
0;03:57:52:320;4.223372;8.671799;
0;03:57:52:331;4.473566;3.9983168;
0;03:57:52:341;9.975441;4.531027;
0;03:57:52:351;-4.8147397;8.318654;
0;03:57:52:362;1.9812019;5.9843073;
0;03:57:52:372;0.91219085;1.3491327;
0;03:57:52:382;12.385205;2.3535004;
0;03:57:52:393;6.257246;4.0976763;
0;03:57:52:403;2.7042508;5.380968;
0;03:57:52:414;-3.6535518;3.821146;
0;03:57:52:424;-2.7138276;0.3196259;
0;03:57:52:434;2.44448;1.9752164;
0;03:57:52:445;5.9651537;8.243237;
0;03:57:52:456;8.6574335;4.2544966;
0;03:57:52:467;-4.435259;2.2014685;
0;03:57:52:477;1.8974048;2.0123265;
0;03:57:52:488;3.5338416;5.922058;
0;03:57:52:498;-4.3358994;1.5897499;
0;03:57:52:509;-4.345476;-1.484405;
0;03:57:52:519;0.8463503;2.4408886;
0;03:57:52:530;-7.2304893;3.645172;
0;03:57:52:541;3.0346506;1.4377182;
0;03:57:52:552;8.7053175;3.9695864;
0;03:57:52:562;-0.2873042;2.825158;
0;03:57:52:572;-0.2801216;4.203021;
0;03:57:52:583;1.6543933;1.8686744;
0;03:57:52:593;3.0478187;3.156755;
0;03:57:52:603;3.3746274;0.9660604;
0;03:57:52:614;-1.4664485;0.20949265;
0;03:57:52:624;-4.808754;-0.31244332;
0;03:57:52:634;-1.9596541;-0.6548142;
0;03:57:52:644;1.9153614;-2.066196;
0;03:57:52:655;2.693477;1.271321;
0;03:57:52:665;-8.063671;1.7621324;
0;03:57:52:675;3.2668881;5.233725;
0;03:57:52:685;4.344279;2.6001031;
0;03:57:52:696;6.8557963;0.62728083;
0;03:57:52:706;-4.0414124;-3.515885;
0;03:57:52:717;-9.143456;-0.046686932;
0;03:57:52:728;-1.0235212;0.37948096;
0;03:57:52:738;7.1431007;9.144653;
0;03:57:52:748;-5.1439424;-2.837129;
0;03:57:52:759;0.34117374;0.46686932;
0;03:57:52:769;-1.0654198;5.035006;
0;03:57:52:780;0.9840169;-1.9213469;
0;03:57:52:791;-2.1284454;5.133168;
0;03:57:52:801;-2.207454;-5.0266266;
0;03:57:52:812;-2.8933928;0.82599956;
0;03:57:52:822;5.595249;4.614824;
0;03:57:52:832;-3.954024;1.2389994;
0;03:57:52:843;3.3650506;-3.3195608;
0;03:57:52:853;-9.740809;-2.123657;
0;03:57:52:864;6.5984197;-1.0163386;
0;03:57:52:874;8.143877;0.61411273;
0;03:57:52:885;-3.1974564;4.0737343;
0;03:57:52:895;-4.6100354;1.4951789;
0;03:57:52:905;4.5980644;0.92416185;
0;03:57:52:915;1.9967642;-0.8343793;
0;03:57:52:925;7.973889;-0.5734113;
0;03:57:52:935;-10.854114;0.17717093;
0;03:57:52:945;-1.5490485;-1.4437037;
0;03:57:52:955;-1.365892;4.373009;
0;03:57:52:966;2.6024973;-0.46088383;
0;03:57:52:976;-11.591528;0.15322891;
0;03:57:52:987;-0.61052144;4.972757;
0;03:57:52:996;0.9540894;2.3127987;
0;03:57:53:007;-7.8757267;-6.409278;
0;03:57:53:017;5.851429;-2.0638018;
0;03:57:53:027;-7.0066314;-1.2844892;
0;03:57:53:037;-7.0066314;-1.2844892;
0;03:57:53:047;-1.8387469;-1.8674773;
0;03:57:53:058;-13.669695;-2.9125464;
0;03:57:53:069;10.708067;11.259931;
0;03:57:53:080;0.6991069;-1.5717934;
0;03:57:53:091;-0.2825158;-0.5530606;
0;03:57:53:100;-9.515755;-4.656722;
0;03:57:53:110;-10.85531;-4.107253;
0;03:57:53:120;-7.563283;-7.07726;
0;03:57:53:130;-6.7851677;-6.465542;
0;03:57:53:140;-11.270704;-4.644751;
0;03:57:53:150;-3.6248214;-3.21661;
0;03:57:53:161;-14.9889;-4.003105;
0;03:57:53:170;7.5908165;0.8535329;
0;03:57:53:181;-1.4185646;-4.903325;
0;03:57:53:191;-10.3214035;-3.1435869;
0;03:57:53:201;1.1911154;2.3666685;
0;03:57:53:212;-10.904391;-2.7820623;
0;03:57:53:223;-3.7541082;-1.0714053;
0;03:57:53:233;-3.5338416;-3.1052797;
0;03:57:53:244;-12.859258;-3.2225955;
0;03:57:53:254;-14.997279;-3.9073372;
0;03:57:53:265;-9.356541;-1.7944542;
0;03:57:53:276;-13.239936;-3.78643;
0;03:57:53:286;-6.447585;-3.4608185;
0;03:57:53:297;0.18914193;1.7776948;
0;03:57:53:307;-12.714408;-0.35673606;
0;03:57:53:318;-17.367538;-2.0470424;
0;03:57:53:327;-13.773843;2.2517467;
0;03:57:53:338;-10.13705;-3.3291376;
0;03:57:53:349;-3.810372;-3.9396589;
0;03:57:53:358;-5.1235914;-0.44532153;
0;03:57:53:370;1.6747441;4.296395;
0;03:57:53:380;-12.522872;-9.490616;
0;03:57:53:390;-7.2029557;-1.7669208;
0;03:57:53:401;7.2328835;1.9285295;
0;03:57:53:412;-13.107058;-4.295198;
0;03:57:53:422;-4.247314;-2.9724014;
0;03:57:53:433;-9.824607;-8.453926;
0;03:57:53:443;-21.1408;0.80924016;
0;03:57:53:453;-3.2812533;0.9528923;
0;03:57:53:463;-7.65546;-2.3690627;
0;03:57:53:473;-6.567295;3.3961751;
0;03:57:53:484;-15.158888;-3.739743;
0;03:57:53:495;-4.608838;1.282095;
0;03:57:53:505;-5.5868697;-4.203021;
0;03:57:53:516;-3.2381577;3.4213142;
0;03:57:53:527;-0.12449849;-9.498995;
0;03:57:53:538;8.261193;1.496376;
0;03:57:53:547;-2.8778305;-4.8338933;
0;03:57:53:558;-16.043545;-2.1811178;
0;03:57:53:567;-9.989806;1.7824832;
0;03:57:53:578;-15.660473;-2.219425;
0;03:57:53:589;2.8072014;-1.4939818;
0;03:57:53:599;5.195418;8.75799;
0;03:57:53:609;-3.7373488;-1.2749124;
0;03:57:53:620;-3.6487634;6.1100025;
0;03:57:53:630;-7.2233067;9.0081835;
0;03:57:53:640;-6.7001734;9.25359;
0;03:57:53:651;-0.9528923;4.280833;
0;03:57:53:662;-8.6334915;5.852626;
0;03:57:53:673;-11.012131;3.4691982;
0;03:57:53:684;-10.831368;9.059659;
0;03:57:53:694;-15.441403;7.455544;
0;03:57:53:705;-5.535394;0.79487497;
0;03:57:53:715;9.391256;11.452663;
0;03:57:53:726;-17.620127;6.659472;
0;03:57:53:736;-4.2556934;4.471172;
0;03:57:53:746;-4.7417164;8.101978;
0;03:57:53:757;-6.9108634;3.2585084;
0;03:57:53:768;-15.198392;0.40462008;
0;03:57:53:778;-3.7241807;-0.9947908;
0;03:57:53:789;15.05474;4.703409;
0;03:57:53:799;17.112556;-3.4476504;
0;03:57:53:809;13.628993;0.38067806;
0;03:57:53:820;7.029376;4.5633483;
0;03:57:53:830;0.011971008;11.56998;
0;03:57:53:841;-6.1746464;3.5996823;
0;03:57:53:851;-4.654328;3.8654387;
0;03:57:53:861;-1.7298107;4.522647;
0;03:57:53:872;-6.8569937;12.356475;
0;03:57:53:883;-14.718355;-2.9005754;
0;03:57:53:893;-13.913903;-2.9233203;
0;03:57:53:903;0.78769237;-1.7166426;
0;03:57:53:914;-3.6870706;-3.2130187;
0;03:57:53:924;-0.7565677;-4.0282445;
0;03:57:53:934;1.7776948;-0.866701;
0;03:57:53:945;-0.33877954;2.100912;
0;03:57:53:956;2.328361;4.211401;
0;03:57:53:967;-1.3634979;3.2429461;
0;03:57:53:977;4.0940847;5.2624555;
0;03:57:53:988;6.539762;6.8522053;
0;03:57:53:999;-5.815516;-3.833117;
0;03:57:54:009;-3.9576154;-0.32561144;
0;03:57:54:020;-8.995016;2.030283;
0;03:57:54:031;6.9850836;-0.19991584;
0;03:57:54:040;8.471883;3.2609026;
0;03:57:54:050;-8.355764;0.20470424;
0;03:57:54:061;-6.7468605;1.0522517;
0;03:57:54:071;-14.699202;0.5506664;
0;03:57:54:081;2.1978772;-3.2118216;
0;03:57:54:092;1.0857705;2.1978772;
0;03:57:54:102;9.668983;-0.5793968;
0;03:57:54:113;-3.016694;-0.077811554;
0;03:57:54:124;-7.181408;-0.50038815;
0;03:57:54:134;-6.187814;-3.1304188;
0;03:57:54:144;5.556942;0.46088383;
0;03:57:54:155;3.6870706;-0.9923966;
0;03:57:54:164;3.4249055;4.9069166;
0;03:57:54:174;9.594764;1.2509704;
0;03:57:54:184;-0.9995792;4.0737343;
0;03:57:54:194;-12.731168;-3.8989575;
0;03:57:54:205;8.175002;-1.8890251;
0;03:57:54:215;3.7349546;0.15801731;
0;03:57:54:225;0.81642276;0.6679823;
0;03:57:54:236;1.7776948;1.6675615;
0;03:57:54:247;-0.48722005;1.389834;
0;03:57:54:258;1.4389153;-0.24660277;
0;03:57:54:268;8.860941;-0.93254155;
0;03:57:54:278;3.1543608;-1.2641385;
0;03:57:54:289;6.956353;2.767697;
0;03:57:54:300;1.377863;3.3877954;
0;03:57:54:310;-2.3953989;4.235343;
0;03:57:54:320;5.7760115;-2.432509;
0;03:57:54:331;-9.470264;-4.2880154;
0;03:57:54:341;4.546589;-0.2777274;
0;03:57:54:352;-0.5398925;-5.3163247;
0;03:57:54:362;3.2106245;-1.0127473;
0;03:57:54:373;1.6843209;0.40821138;
0;03:57:54:383;-2.6252422;-0.6967127;
0;03:57:54:394;3.7780502;1.8471266;
0;03:57:54:405;-3.858256;-4.602853;
0;03:57:54:415;5.463568;1.9309237;
0;03:57:54:426;-4.0078936;-1.5729905;
0;03:57:54:437;3.9863458;7.0964136;
0;03:57:54:448;1.9560628;2.6898856;
0;03:57:54:458;8.184579;-1.1468226;
0;03:57:54:469;-1.8327614;0.5315128;
0;03:57:54:479;-3.8989575;0.18435353;
0;03:57:54:490;-0.14844051;-4.321534;
0;03:57:54:501;-4.3023806;-1.8183962;
0;03:57:54:512;-1.2521675;2.9963434;
0;03:57:54:522;3.4572272;1.8315643;
0;03:57:54:533;14.523228;-1.0690111;
0;03:57:54:543;0.8846575;-2.6491842;
0;03:57:54:554;-1.555034;-2.2876596;
0;03:57:54:564;4.8027687;-2.5222914;
0;03:57:54:575;10.904391;-0.5434838;
0;03:57:54:585;1.5658079;5.5856724;
0;03:57:54:596;-8.310274;-0.7625532;
0;03:57:54:606;-0.15682021;9.317036;
0;03:57:54:617;12.4630165;0.47046062;
0;03:57:54:627;2.3056161;2.8981812;
0;03:57:54:638;5.407305;4.3035774;
0;03:57:54:648;-1.2378023;2.1799207;
0;03:57:54:659;-5.294777;0.48961425;
0;03:57:54:669;-4.6830587;5.0864816;
0;03:57:54:679;3.5422213;2.1428106;
0;03:57:54:690;6.8557963;6.3697734;
0;03:57:54:700;10.970232;1.7621324;
0;03:57:54:711;9.701305;-0.06823475;
0;03:57:54:721;-6.343437;0.02633622;
0;03:57:54:732;-1.4784195;-2.1655555;
0;03:57:54:742;-5.1822495;6.256049;
0;03:57:54:752;-3.5170822;-0.027533319;
0;03:57:54:763;-1.7190368;-1.2413936;
0;03:57:54:774;1.5310919;1.4030021;
0;03:57:54:784;-0.41180268;3.003526;
0;03:57:54:794;6.692991;0.01316811;
0;03:57:54:804;9.235633;2.9017725;
0;03:57:54:815;-0.12090719;1.1109096;
0;03:57:54:826;-1.7022774;-1.8136078;
0;03:57:54:836;1.2904748;-0.830788;
0;03:57:54:847;3.7205894;-0.8810662;
0;03:57:54:858;-4.0557775;1.7142484;
0;03:57:54:869;3.5865142;5.519832;
0;03:57:54:880;4.175488;-0.9540894;
0;03:57:54:890;-13.328521;4.7644615;
0;03:57:54:901;1.9728222;-1.4532804;
0;03:57:54:912;5.523423;2.3511062;
0;03:57:54:922;0.6440403;-2.695871;
0;03:57:54:933;-1.2330139;3.6152446;
0;03:57:54:944;5.351041;2.3391352;
0;03:57:54:954;1.2270284;6.045359;
0;03:57:54:965;2.517503;-1.6256629;
0;03:57:54:976;2.4001873;2.0518308;
0;03:57:54:987;3.7553053;2.6312277;
0;03:57:54:997;1.4413095;-1.496376;
0;03:57:55:008;-0.20231004;3.8247373;
0;03:57:55:019;3.0119057;1.0642227;
0;03:57:55:029;11.426328;1.7669208;
0;03:57:55:039;-5.5976434;-1.8734628;
0;03:57:55:050;-4.945224;-1.8315643;
0;03:57:55:060;-2.7581203;1.365892;
0;03:57:55:070;4.8781857;3.4225113;
0;03:57:55:080;-1.8842367;-2.1739352;
0;03:57:55:090;13.150153;3.6834793;
0;03:57:55:100;-9.180567;-1.9656396;
0;03:57:55:111;3.9133227;-4.4699745;
0;03:57:55:122;-7.395689;-1.9165585;
0;03:57:55:133;-3.0669725;-2.1404164;
0;03:57:55:144;-2.5905263;3.466804;
0;03:57:55:154;2.3235726;-2.8431146;
0;03:57:55:165;5.3127337;0.9588778;
0;03:57:55:175;-2.9484594;-6.625953;
0;03:57:55:185;1.6364368;-1.7753005;
0;03:57:55:196;2.0805612;-1.2689269;
0;03:57:55:207;-11.101913;0.33399114;
0;03:57:55:217;-10.741586;-0.5674258;
0;03:57:55:227;-3.2944214;-2.336741;
0;03:57:55:237;1.1432313;-1.520318;
0;03:57:55:248;1.460463;-7.145495;
0;03:57:55:258;-7.753622;0.19153613;
0;03:57:55:269;1.0773908;-1.4640543;
0;03:57:55:278;-9.275137;-6.1926026;
0;03:57:55:290;-14.283808;-4.819528;
0;03:57:55:300;2.7449522;-0.62728083;
0;03:57:55:311;-11.410766;-0.61650693;
0;03:57:55:322;-7.8888946;-3.727772;
0;03:57:55:332;-19.574993;-4.546589;
0;03:57:55:343;-6.839037;-7.337031;
0;03:57:55:353;-20.859482;-8.293514;
0;03:57:55:363;2.5258827;7.2939353;
0;03:57:55:373;-17.869123;-15.203181;
0;03:57:55:383;-16.78934;4.465186;
0;03:57:55:393;-5.1343656;-10.947487;
0;03:57:55:403;-10.348937;-3.3901896;
0;03:57:55:413;-6.752846;0.6775591;
0;03:57:55:423;-12.223597;-2.861071;
0;03:57:55:434;-7.1586633;-2.2744915;
0;03:57:55:444;-12.642582;-0.23822308;
0;03:57:55:455;-8.075643;-1.8447324;
0;03:57:55:465;-5.4791307;-1.3012487;
0;03:57:55:476;-8.214506;-1.4041992;
0;03:57:55:486;-14.721947;-3.3973722;
0;03:57:55:496;-10.532093;-2.0578163;
0;03:57:55:507;-18.67597;-5.804742;
0;03:57:55:518;-12.119449;-1.2294226;
0;03:57:55:528;-10.788273;-2.1308396;
0;03:57:55:539;-16.591818;-3.6343982;
0;03:57:55:549;-3.7948096;-0.050278235;
0;03:57:55:560;0.5530606;2.2278047;
0;03:57:55:570;-12.209231;-7.9667063;
0;03:57:55:581;-3.810372;1.5849615;
0;03:57:55:591;6.742072;-0.34835634;
0;03:57:55:601;-2.908955;-6.4128695;
0;03:57:55:612;-13.237541;-7.428011;
0;03:57:55:622;-18.017565;-3.9516299;
0;03:57:55:633;-17.448942;-0.7529764;
0;03:57:55:643;18.988413;0.20231004;
0;03:57:55:654;-19.901802;-6.6187706;
0;03:57:55:664;-16.700754;-8.420407;
0;03:57:55:674;-8.062474;-2.4983494;
0;03:57:55:684;-7.6829934;1.6950948;
0;03:57:55:694;-8.793902;3.870227;
0;03:57:55:704;6.999449;5.6563015;
0;03:57:55:714;-11.727997;6.2404866;
0;03:57:55:724;-18.359936;3.2561142;
0;03:57:55:735;3.7493198;7.517793;
0;03:57:55:745;-18.57661;9.690532;
0;03:57:55:756;-1.3299791;5.681441;
0;03:57:55:767;-10.18254;14.079103;
0;03:57:55:778;-3.8367083;2.7497406;
0;03:57:55:788;-2.907758;9.488221;
0;03:57:55:799;-9.824607;8.99741;
0;03:57:55:809;-2.160767;4.2078094;
0;03:57:55:820;-15.340847;7.4711065;
0;03:57:55:831;-5.303157;8.963891;
0;03:57:55:841;-8.239645;1.520318;
0;03:57:55:851;4.712986;4.295198;
0;03:57:55:861;-4.642357;5.129577;
0;03:57:55:871;-10.505757;1.8124107;
0;03:57:55:882;-4.5753193;3.9971197;
0;03:57:55:892;-4.5753193;3.9971197;
0;03:57:55:902;-3.2070332;1.5466543;
0;03:57:55:913;-8.813056;-1.2270284;
0;03:57:55:923;-0.32800564;2.8646624;
0;03:57:55:934;2.5019407;4.605247;
0;03:57:55:944;3.9480386;7.66384;
0;03:57:55:954;-0.8858546;2.9604304;
0;03:57:55:965;-1.033098;1.99437;
0;03:57:55:976;5.851429;0.664391;
0;03:57:55:987;-5.4623713;1.0785879;
0;03:57:55:997;-1.769315;-0.6871359;
0;03:57:56:007;0.6464345;5.603629;
0;03:57:56:017;0.29568392;1.9357121;
0;03:57:56:028;4.8015714;5.085284;
0;03:57:56:038;-5.463568;-9.186552;
0;03:57:56:049;-3.6846764;-0.80924016;
0;03:57:56:059;-2.360683;0.49081135;
0;03:57:56:070;-3.4320881;5.0481744;
0;03:57:56:080;-3.6619315;4.253299;
0;03:57:56:090;1.2868834;1.389834;
0;03:57:56:100;5.816713;9.617508;
0;03:57:56:110;-5.255273;-3.9145198;
0;03:57:56:121;2.3415294;-2.030283;
0;03:57:56:132;-7.654263;2.2469583;
0;03:57:56:142;-3.6032736;5.213374;
0;03:57:56:153;-4.6579194;-0.05865794;
0;03:57:56:162;2.837129;6.4068837;
0;03:57:56:172;0.81761986;2.5342624;
0;03:57:56:182;-4.1335893;1.4652514;
0;03:57:56:193;-3.903746;-1.8531121;
0;03:57:56:203;0.31244332;3.3267434;
0;03:57:56:214;-0.29328972;1.3156139;
0;03:57:56:223;-3.8271315;1.6400281;
0;03:57:56:234;2.5486276;5.445612;
0;03:57:56:244;3.810372;1.7884687;
0;03:57:56:255;0.973243;4.3275194;
0;03:57:56:266;-0.20350714;3.3159695;
0;03:57:56:276;-4.2904096;1.6795325;
0;03:57:56:286;4.189853;0.8882488;
0;03:57:56:297;-0.7589619;5.3701944;
0;03:57:56:307;-1.1049241;-1.0594343;
0;03:57:56:318;-8.1079645;-0.51116204;
0;03:57:56:328;-0.79607207;-2.1332338;
0;03:57:56:339;1.9668367;-3.0621839;
0;03:57:56:349;-6.9767036;0.2621651;
0;03:57:56:359;8.258799;2.9831753;
0;03:57:56:370;4.292804;2.565387;
0;03:57:56:381;6.329072;7.016208;
0;03:57:56:391;6.7624226;-0.91697925;
0;03:57:56:401;-1.4796166;-5.7604494;
0;03:57:56:411;-3.846285;-1.1827357;
0;03:57:56:421;-18.078617;5.7867856;
0;03:57:56:432;14.78659;11.723208;
0;03:57:56:442;0.5614403;-1.7477672;
0;03:57:56:453;-6.841431;3.7337575;
0;03:57:56:462;-9.354146;-6.8462195;
0;03:57:56:473;2.7042508;-4.378995;
0;03:57:56:484;10.9582615;6.1686606;
0;03:57:56:495;4.000711;4.459201;
0;03:57:56:506;-1.5047557;2.718616;
0;03:57:56:517;-0.9876082;6.0848637;
0;03:57:56:526;0.077811554;3.8642416;
0;03:57:56:537;-5.055357;4.5322237;
0;03:57:56:547;1.0103531;6.325481;
0;03:57:56:557;3.560178;-2.3690627;
0;03:57:56:567;0.9911995;-4.996699;
0;03:57:56:577;-6.7241154;0.18315643;
0;03:57:56:587;2.3187842;-0.08259996;
0;03:57:56:597;-2.9400797;1.0821792;
0;03:57:56:608;-2.9735985;4.8662148;
0;03:57:56:619;-2.4947581;2.2780828;
0;03:57:56:629;1.7681179;5.7963624;
0;03:57:56:640;1.389834;0.074220255;
0;03:57:56:650;-1.7729063;-6.621165;
0;03:57:56:660;-3.4799721;-1.1288661;
0;03:57:56:671;-6.277597;0.39384618;
0;03:57:56:681;-0.051475335;2.007538;
0;03:57:56:692;2.8790276;0.61770403;
0;03:57:56:703;-4.122815;0.770933;
0;03:57:56:713;11.766304;4.7788267;
0;03:57:56:724;-6.38773;-1.9309237;
0;03:57:56:734;-1.3455414;0.82240826;
0;03:57:56:744;-1.9919758;2.9819782;
0;03:57:56:754;3.6248214;1.9991584;
0;03:57:56:765;-1.9668367;1.6663644;
0;03:57:56:775;12.419921;5.506664;
0;03:57:56:786;0.878672;-3.309984;
0;03:57:56:795;-1.2593501;6.823475;
0;03:57:56:806;0.0047884034;2.3415294;
0;03:57:56:815;5.9747305;-2.432509;
0;03:57:56:826;-1.021127;-6.090849;
0;03:57:56:836;6.053739;2.4193408;
0;03:57:56:847;3.0071173;3.7948096;
0;03:57:56:857;8.3629465;-0.7422025;
0;03:57:56:868;9.14226;-0.4297592;
0;03:57:56:878;14.182054;2.9771898;
0;03:57:56:888;1.6938977;-1.0031705;
0;03:57:56:898;1.234211;3.3411086;
0;03:57:56:908;8.259995;-3.2130187;
0;03:57:56:919;11.71004;4.711789;
0;03:57:56:930;9.514558;0.3184288;
0;03:57:56:940;8.428787;3.8163576;
0;03:57:56:951;-2.078167;2.5019407;
0;03:57:56:961;5.804742;3.752911;
0;03:57:56:972;6.4416;-4.459201;
0;03:57:56:982;-2.2948422;-2.146402;
0;03:57:56:992;15.051149;5.1678843;
0;03:57:57:003;-5.6108117;-0.88944596;
0;03:57:57:014;4.9703627;4.1012673;
0;03:57:57:024;5.1583076;4.619612;
0;03:57:57:035;-0.94092125;-1.1599907;
0;03:57:57:045;6.147113;-4.074931;
0;03:57:57:056;0.3842694;-2.3523033;
0;03:57:57:068;5.659893;0.9900024;
0;03:57:57:078;6.95755;2.3247697;
0;03:57:57:089;-1.8495208;-8.631097;
0;03:57:57:099;12.97777;7.9786773;
0;03:57:57:110;-2.1511903;-1.7441759;
0;03:57:57:120;-0.60693014;2.3475149;
0;03:57:57:131;9.572019;2.480393;
0;03:57:57:141;-3.977966;-0.049081136;
0;03:57:57:152;6.811504;1.4999673;
0;03:57:57:162;0.17477672;2.2158337;
0;03:57:57:173;-3.9875429;4.2281604;
0;03:57:57:183;-3.5075054;-0.8690952;
0;03:57:57:193;-7.0449386;-1.1025299;
0;03:57:57:204;2.1320367;-0.6871359;
0;03:57:57:214;-1.685518;-5.076905;
0;03:57:57:225;6.3949127;-0.272939;
0;03:57:57:236;-6.5924344;-0.17956513;
0;03:57:57:247;-1.4879963;-1.7226281;
0;03:57:57:257;-2.195483;1.7561469;
0;03:57:57:268;0.676362;1.3204023;
0;03:57:57:278;0.33279404;-0.5386954;
0;03:57:57:289;0.7038953;6.2285156;
0;03:57:57:299;-0.50517654;2.5270798;
0;03:57:57:310;-9.301474;-4.9655743;
0;03:57:57:320;3.1830912;2.5893292;
0;03:57:57:330;2.540248;-1.8028339;
0;03:57:57:340;-4.0186677;1.0378864;
0;03:57:57:351;11.404779;1.1923125;
0;03:57:57:361;-6.5481415;-0.46447513;
0;03:57:57:372;6.0609217;7.0186024;
0;03:57:57:382;10.243592;0.50397944;
0;03:57:57:392;6.179435;1.8579005;
0;03:57:57:403;-7.643489;-3.4703953;
0;03:57:57:413;-8.500613;-2.8203697;
0;03:57:57:424;0.29568392;4.06296;
0;03:57:57:435;-9.697714;-3.8391025;
0;03:57:57:445;12.474988;3.7337575;
0;03:57:57:456;-11.476605;-4.1395745;
0;03:57:57:467;7.395689;0.2681506;
0;03:57:57:477;-16.402676;0.89782566;
0;03:57:57:488;5.6467247;5.1080294;
0;03:57:57:498;0.9923966;0.260968;
0;03:57:57:508;-2.741361;-2.0171149;
0;03:57:57:519;6.4128695;3.891775;
0;03:57:57:530;5.911284;-1.4688427;
0;03:57:57:540;0.78170687;1.033098;
0;03:57:57:551;4.1982327;4.644751;
0;03:57:57:561;5.093664;0.23702596;
0;03:57:57:572;6.7468605;2.3403323;
0;03:57:57:582;3.9384618;-4.5022964;
0;03:57:57:593;-4.5262384;1.4616601;
0;03:57:57:603;5.058948;-3.3997664;
0;03:57:57:614;6.029797;-0.46208093;
0;03:57:57:625;5.279215;3.6332011;
0;03:57:57:636;1.6915035;-4.650737;
0;03:57:57:646;5.3342814;7.004237;
0;03:57:57:656;-3.526659;-5.436035;
0;03:57:57:667;-3.5637693;0.23822308;
0;03:57:57:678;7.0569096;2.8754363;
0;03:57:57:689;-7.5213847;-4.0677485;
0;03:57:57:700;-8.465898;6.908469;
0;03:57:57:710;11.907562;-6.0645127;
0;03:57:57:721;0.8283938;-6.301539;
0;03:57:57:732;-5.085284;-6.0477533;
0;03:57:57:743;4.617218;2.9951463;
0;03:57:57:754;7.905654;-0.46208093;
0;03:57:57:764;0.47764325;8.49343;
0;03:57:57:773;1.9991584;4.284424;
0;03:57:57:783;-0.24181437;0.51954174;
0;03:57:57:793;0.427365;1.1348516;
0;03:57:57:804;-2.2649148;-5.6239796;
0;03:57:57:814;-5.437232;-5.403713;
0;03:57:57:824;5.2744265;-3.3794158;
0;03:57:57:835;-7.326257;-8.274361;
0;03:57:57:846;5.825093;-2.8335378;
0;03:57:57:857;1.8986019;-0.94331545;
0;03:57:57:868;-7.32506;0.1412579;
0;03:57:57:879;11.010934;4.763264;
0;03:57:57:889;-5.663484;-4.462792;
0;03:57:57:899;-3.241749;-2.3690627;
0;03:57:57:910;-1.875857;-4.010288;
0;03:57:57:921;2.9975405;-2.6120741;
0;03:57:57:931;11.9135475;-0.7062895;
0;03:57:57:941;-2.256535;-1.5921441;
0;03:57:57:951;0.973243;1.6807296;
0;03:57:57:961;-4.951209;0.8810662;
0;03:57:57:971;-5.133168;-1.4389153;
0;03:57:57:981;1.9129672;-0.6991069;
0;03:57:57:992;-5.8346696;-11.208455;
0;03:57:58:003;-4.4687777;-2.4468741;
0;03:57:58:014;-6.2524576;-5.1726727;
0;03:57:58:025;0.50757074;1.0031705;
0;03:57:58:036;-3.667917;1.8076223;
0;03:57:58:046;-2.0506337;-6.314707;
0;03:57:58:057;-3.9516299;-0.11492168;
0;03:57:58:067;-24.420856;-1.6017209;
0;03:57:58:078;-7.1586633;-4.437653;
0;03:57:58:089;-5.129577;-9.628283;
0;03:57:58:100;-6.930017;4.2197804;
0;03:57:58:111;3.0059202;-12.425907;
0;03:57:58:121;-9.414001;-1.423353;
0;03:57:58:131;-7.928399;-3.2561142;
0;03:57:58:141;-27.50459;-12.636597;
0;03:57:58:152;-10.800244;-2.5079262;
0;03:57:58:163;-6.1112;4.859032;
0;03:57:58:173;-6.6067996;-5.161899;
0;03:57:58:184;-10.758346;2.6372132;
0;03:57:58:195;-16.187199;2.670732;
0;03:57:58:206;6.619968;1.4652514;
0;03:57:58:217;-9.709685;-10.868479;
0;03:57:58:227;-9.445126;6.8893156;
0;03:57:58:238;-5.9986725;-7.6626425;
0;03:57:58:248;-24.649504;-6.137536;
0;03:57:58:259;-11.954249;2.2062569;
0;03:57:58:269;-0.9816227;4.8853683;
0;03:57:58:280;5.457583;4.308366;
0;03:57:58:292;-5.461174;-1.7477672;
0;03:57:58:302;-8.737639;6.685808;
0;03:57:58:313;-4.096479;-2.8000188;
0;03:57:58:324;-11.69807;-6.0681043;
0;03:57:58:335;-3.7217865;7.93199;
0;03:57:58:345;-2.9508536;-7.560889;
0;03:57:58:356;-2.9999347;-8.389283;
0;03:57:58:366;-12.291832;2.566584;
0;03:57:58:377;-32.591072;-14.944607;
0;03:57:58:387;-7.338228;-7.6482773;
0;03:57:58:397;-7.717709;4.7788267;
0;03:57:58:408;0.7469909;-6.0728927;
0;03:57:58:418;-16.381128;6.5601125;
0;03:57:58:429;1.4437037;1.9321208;
0;03:57:58:440;6.7731967;-1.234211;
0;03:57:58:451;-24.35741;-3.1878796;
0;03:57:58:461;10.621876;5.1104236;
0;03:57:58:472;-20.948069;-6.8127007;
0;03:57:58:482;-7.3166804;-0.12210429;
0;03:57:58:493;11.774684;-4.8015714;
0;03:57:58:503;-3.4991257;-3.9264908;
0;03:57:58:514;-15.387534;0.12449849;
0;03:57:58:524;-9.018958;-6.539762;
0;03:57:58:535;-16.873137;-6.481104;
0;03:57:58:545;-13.444639;4.286818;
0;03:57:58:556;-14.13417;-6.1159883;
0;03:57:58:566;-12.154165;-0.9876082;
0;03:57:58:576;-18.637663;-5.1798553;
0;03:57:58:587;2.645593;1.8231846;
0;03:57:58:598;-5.7161565;2.3104045;
0;03:57:58:608;9.43076;-3.964798;
0;03:57:58:618;-34.640507;-8.297106;
0;03:57:58:629;-1.0630256;5.601235;
0;03:57:58:639;-5.076905;-9.221268;
0;03:57:58:650;-4.2521024;5.3965306;
0;03:57:58:660;-0.1316811;-3.0430303;
0;03:57:58:671;-10.672154;6.4631476;
0;03:57:58:681;-3.264494;6.197391;
0;03:57:58:692;-10.664971;-3.333926;
0;03:57:58:702;-9.707291;0.60214174;
0;03:57:58:713;-15.901091;3.8762126;
0;03:57:58:723;-12.54442;0.58418524;
0;03:57:58:734;-5.4791307;3.7445314;
0;03:57:58:745;6.6774287;12.834118;
0;03:57:58:755;-2.8682537;14.70399;
0;03:57:58:766;-4.9464207;2.8431146;
0;03:57:58:776;-7.7787614;6.1686606;
0;03:57:58:787;-2.1775265;5.720945;
0;03:57:58:797;-3.2728736;11.176133;
0;03:57:58:808;-6.92044;3.6104562;
0;03:57:58:818;-9.160215;5.234922;
0;03:57:58:828;-9.208099;7.599196;
0;03:57:58:838;-0.3890578;1.0055647;
0;03:57:58:849;-2.6324248;6.2847795;
0;03:57:58:859;4.509479;5.3845596;
0;03:57:58:870;9.215282;-0.7086837;
0;03:57:58:880;0.9995792;1.8447324;
0;03:57:58:890;3.903746;6.4583592;
0;03:57:58:900;-5.619191;5.3438582;
0;03:57:58:910;-3.3255463;6.1100025;
0;03:57:58:920;0.05267244;3.503914;
0;03:57:58:931;1.6017209;2.5354595;
0;03:57:58:942;3.9983168;-0.027533319;
0;03:57:58:953;-3.1615434;5.595249;
0;03:57:58:963;6.549339;1.6783354;
0;03:57:58:974;3.0238767;6.4643445;
0;03:57:58:984;-4.856638;2.2744915;
0;03:57:58:995;-0.91219085;-3.6463692;
0;03:57:59:005;3.787627;-1.8950106;
0;03:57:59:016;4.3754034;4.1036615;
0;03:57:59:025;1.471237;2.219425;
0;03:57:59:035;-6.4416;-0.09816227;
0;03:57:59:046;0.62249243;6.59004;
0;03:57:59:056;-0.7517793;3.4943373;
0;03:57:59:067;4.865018;1.4640543;
0;03:57:59:078;0.12928689;-7.0593038;
0;03:57:59:088;-1.412579;1.5298948;
0;03:57:59:099;-7.3106947;4.51307;
0;03:57:59:109;-2.7629087;2.7329812;
0;03:57:59:119;7.261614;4.260482;
0;03:57:59:129;-3.9576154;3.0358477;
0;03:57:59:140;1.4664485;1.4030021;
0;03:57:59:150;0.985214;-0.35673606;
0;03:57:59:160;-0.7194576;-3.0753522;
0;03:57:59:171;1.4401124;-1.4879963;
0;03:57:59:181;-9.168595;-0.049081136;
0;03:57:59:191;-3.0322564;4.4963107;
0;03:57:59:202;-1.9572599;5.0625396;
0;03:57:59:212;-4.272453;-1.7034745;
0;03:57:59:223;7.2927384;5.967548;
0;03:57:59:233;-13.097481;-4.84347;
0;03:57:59:244;-15.148114;-2.0015526;
0;03:57:59:254;-6.303933;4.735731;
0;03:57:59:265;-4.1359835;-0.29688102;
0;03:57:59:275;7.2592196;0.92176765;
0;03:57:59:286;-0.8714894;1.9189527;
0;03:57:59:296;3.3518825;6.908469;
0;03:57:59:307;-8.687361;4.638766;
0;03:57:59:318;-3.1280246;-0.5554548;
0;03:57:59:329;1.6531962;6.587646;
0;03:57:59:339;-1.8794483;-5.695806;
0;03:57:59:350;-5.04578;-2.7832594;
0;03:57:59:361;-0.2873042;-2.7581203;
0;03:57:59:371;3.9600096;5.922058;
0;03:57:59:381;-7.896077;5.104438;
0;03:57:59:391;1.6711528;-4.119224;
0;03:57:59:402;-6.0285997;-1.460463;
0;03:57:59:412;-0.61530983;0.31004912;
0;03:57:59:423;-1.1647792;-1.0139444;
0;03:57:59:433;5.5270147;-3.9097314;
0;03:57:59:443;-9.509769;-6.805518;
0;03:57:59:454;-1.9177556;-6.393716;
0;03:57:59:464;21.435287;10.656591;
0;03:57:59:475;-3.0669725;3.894169;
0;03:57:59:484;12.956223;2.7042508;
0;03:57:59:495;6.314707;4.4328647;
0;03:57:59:505;-10.187328;2.8933928;
0;03:57:59:516;-3.084929;1.532289;
0;03:57:59:526;2.861071;-2.5582044;
0;03:57:59:537;13.043611;7.8266454;
0;03:57:59:548;5.032612;3.7301662;
0;03:57:59:559;-0.7517793;-1.543063;
0;03:57:59:569;3.8175547;-0.46926352;
0;03:57:59:580;-2.255338;-8.847773;
0;03:57:59:591;-26.499025;-9.574412;
0;03:57:59:601;7.20535;11.63582;
0;03:57:59:612;13.63019;3.66672;
0;03:57:59:622;24.988283;13.79539;
0;03:57:59:632;2.042254;19.607315;
0;03:57:59:643;-2.6874914;6.9599442;
0;03:57:59:654;-28.063635;-6.554127;
0;03:57:59:664;-7.7931266;-4.6363716;
0;03:57:59:674;2.27928;-2.2852654;
0;03:57:59:685;-3.5218706;-11.887212;
0;03:57:59:696;17.651253;-3.2800562;
0;03:57:59:705;3.6032736;-3.0992942;
0;03:57:59:716;12.33373;-2.054225;
0;03:57:59:727;-0.4321534;2.3415294;
0;03:57:59:737;-4.7524905;0.142455;
0;03:57:59:748;3.6260185;6.2620344;
0;03:57:59:759;2.955642;4.8135424;
0;03:57:59:770;10.44231;0.79607207;
0;03:57:59:780;-5.815516;-4.712986;
0;03:57:59:791;-6.751649;-3.5051112;
0;03:57:59:802;4.4795513;-3.4524388;
0;03:57:59:812;4.1838675;-0.8559271;
0;03:57:59:823;-6.1938;-2.6431987;
0;03:57:59:834;3.6367924;-1.3515269;
0;03:57:59:844;-1.3706805;5.201403;
0;03:57:59:854;1.4437037;-1.1192893;
0;03:57:59:865;-3.7553053;2.421735;
0;03:57:59:875;-0.82121116;0.12330139;
0;03:57:59:886;-1.4185646;-3.6415808;
0;03:57:59:897;0.29807812;4.675876;
0;03:57:59:907;-6.956353;-5.6407394;
0;03:57:59:918;-4.631583;2.219425;
0;03:57:59:928;-10.722432;-0.7517793;
0;03:57:59:939;5.8203044;-4.0318356;
0;03:57:59:950;13.456611;3.156755;
0;03:57:59:961;0.7038953;0.24420857;
0;03:57:59:972;-2.9352913;1.9405005;
0;03:57:59:983;-5.5976434;-3.1028855;
0;03:57:59:994;8.671799;-1.496376;
0;03:58:00:005;-4.64116;-2.9819782;
0;03:58:00:016;6.1064115;10.46745;
0;03:58:00:026;-7.429208;-3.1376014;
0;03:58:00:036;-10.187328;-7.0209966;
0;03:58:00:046;2.2349873;-2.778471;
0;03:58:00:057;-0.4321534;-4.325125;
0;03:58:00:067;-6.009446;-3.7900212;
0;03:58:00:078;2.7808652;6.731298;
0;03:58:00:089;8.560468;1.8734628;
0;03:58:00:098;-1.4891934;0.8355764;
0;03:58:00:109;12.974179;-1.2952632;
0;03:58:00:119;6.9491706;-4.783615;
0;03:58:00:130;-3.6128504;-3.2836475;
0;03:58:00:140;-2.0338743;-4.128801;
0;03:58:00:151;-2.7090392;-2.2098482;
0;03:58:00:160;11.954249;11.378444;
0;03:58:00:170;0.688333;-6.5864487;
0;03:58:00:180;-0.47165772;-1.1109096;
0;03:58:00:190;-11.909956;-5.768829;
0;03:58:00:201;-1.3467385;1.3670892;
0;03:58:00:211;10.013748;11.991359;
0;03:58:00:222;-2.48159;0.04309563;
0;03:58:00:232;-15.510836;10.072407;
0;03:58:00:243;-8.209718;10.922348;
0;03:58:00:254;6.0956373;-1.1528081;
0;03:58:00:263;13.703214;-1.733402;
0;03:58:00:273;5.057751;-2.7569232;
0;03:58:00:283;-7.4627266;-4.64116;
0;03:58:00:294;7.2664022;-6.615179;
0;03:58:00:304;18.301277;-7.49026;
0;03:58:00:315;-4.999093;-2.3906105;
0;03:58:00:325;-4.531027;4.0976763;
0;03:58:00:336;-11.532869;-1.7046716;
0;03:58:00:346;-6.5708866;-4.572925;
0;03:58:00:357;13.487736;-0.80804306;
0;03:58:00:367;6.003461;-3.6894648;
0;03:58:00:378;-5.9878983;-2.2026656;
0;03:58:00:388;-6.827066;-0.37229836;
0;03:58:00:398;9.7479925;-5.878962;
0;03:58:00:409;19.628862;7.145495;
0;03:58:00:419;2.445677;9.855731;
0;03:58:00:430;-20.151997;-7.117962;
0;03:58:00:440;0.60333884;-0.5566519;
0;03:58:00:450;-3.095703;3.2345665;
0;03:58:00:461;-2.7329812;-2.1068976;
0;03:58:00:472;-2.0470424;-0.81283146;
0;03:58:00:483;8.967483;0.08140286;
0;03:58:00:492;0.81283146;-2.1871033;
0;03:58:00:502;2.8455088;-1.3132197;
0;03:58:00:513;9.358934;5.1487308;
0;03:58:00:523;0.37229836;3.4620156;
0;03:58:00:534;-2.3247697;0.51834464;
0;03:58:00:544;1.2246342;-4.4963107;
0;03:58:00:554;1.5107412;-7.800309;
0;03:58:00:564;4.3119574;-2.5115175;
0;03:58:00:574;0.59376204;-0.35673606;
0;03:58:00:584;-3.039439;-4.1383777;
0;03:58:00:595;5.898116;9.919178;
0;03:58:00:604;0.19752164;-3.8426938;
0;03:58:00:614;4.59567;0.22984336;
0;03:58:00:624;10.146626;-2.4361002;
0;03:58:00:634;-5.9244523;-4.3981485;
0;03:58:00:644;1.210269;3.7205894;
0;03:58:00:654;0.45130703;0.22864626;
0;03:58:00:665;0.4297592;-1.1192893;
0;03:58:00:675;-2.1428106;-0.11971009;
0;03:58:00:685;-3.3770216;-4.8027687;
0;03:58:00:695;-10.614694;1.7513585;
0;03:58:00:705;-1.5047557;0.5267244;
0;03:58:00:715;5.1523223;-0.0011971008;
0;03:58:00:725;-5.8574142;-6.9360023;
0;03:58:00:735;1.2174516;5.08289;
0;03:58:00:745;-12.337321;-6.3242836;
0;03:58:00:755;-8.825027;-7.7787614;
0;03:58:00:766;-13.934254;-6.9024835;
0;03:58:00:777;-22.539015;-1.271321;
0;03:58:00:788;-20.9349;-8.115147;
0;03:58:00:799;11.589133;-1.4808137;
0;03:58:00:810;7.043741;9.312247;
0;03:58:00:819;-10.529699;-7.129933;
0;03:58:00:829;1.9788077;-3.916914;
0;03:58:00:840;-14.68723;9.709685;
0;03:58:00:850;-18.51915;-10.217256;
0;03:58:00:861;6.0130377;-2.8670566;
0;03:58:00:872;-21.022287;2.4971523;
0;03:58:00:883;-17.178398;-3.9671922;
0;03:58:00:893;-21.14559;-5.898116;
0;03:58:00:904;-1.30484;7.6734166;
0;03:58:00:914;16.832436;-7.076063;
0;03:58:00:925;-20.163967;-12.678495;
0;03:58:00:936;-6.7767878;11.449073;
0;03:58:00:946;-7.711724;-3.3494883;
0;03:58:00:958;-14.287398;-13.433866;
0;03:58:00:968;-21.395784;-1.6998832;
0;03:58:00:978;-2.658761;1.4293385;
0;03:58:00:989;-28.749575;-14.877569;
0;03:58:00:999;-17.843985;0.14724341;
0;03:58:01:009;-5.5988407;3.3985693;
0;03:58:01:019;-24.735695;-6.518214;
0;03:58:01:030;6.045359;-3.764882;
0;03:58:01:040;-7.5968018;8.773552;
0;03:58:01:050;-6.579266;-6.3925185;
0;03:58:01:061;3.0418332;-1.4784195;
0;03:58:01:071;-21.428104;-1.697489;
0;03:58:01:082;-16.253038;2.44448;
0;03:58:01:093;7.6123643;-11.083957;
0;03:58:01:104;-9.01776;-10.309433;
0;03:58:01:115;-21.802797;-10.8469305;
0;03:58:01:126;-3.8857894;-5.580884;
0;03:58:01:137;-25.72091;-2.7617116;
0;03:58:01:148;-14.738706;-16.316484;
0;03:58:01:159;-14.283808;1.7501614;
0;03:58:01:169;-1.7860745;9.482236;
0;03:58:01:180;-4.829105;-6.573281;
0;03:58:01:190;-21.254526;4.745308;
0;03:58:01:201;-3.1603463;-1.2437878;
0;03:58:01:211;-26.568457;0.36750996;
0;03:58:01:221;-1.5215151;-2.8622682;
0;03:58:01:232;-15.873557;1.2198458;
0;03:58:01:242;-21.20305;1.6962919;
0;03:58:01:252;-10.402806;-3.678691;
0;03:58:01:263;-7.1969705;-0.51235914;
0;03:58:01:274;-8.598776;4.909311;
0;03:58:01:284;-4.7680526;0.6536171;
0;03:58:01:294;-14.458584;1.2126632;
0;03:58:01:305;-11.556811;0.2681506;
0;03:58:01:315;-7.2185183;-3.3722332;
0;03:58:01:326;-20.284874;0.16280572;
0;03:58:01:337;-2.2720973;-3.940856;
0;03:58:01:347;4.059369;-6.271611;
0;03:58:01:358;1.0953473;-4.8267107;
0;03:58:01:369;4.794389;-4.322731;
0;03:58:01:378;-1.1599907;-3.7960067;
0;03:58:01:388;-1.4939818;-2.9759927;
0;03:58:01:398;8.504205;0.7314286;
0;03:58:01:408;1.2665327;7.2460513;
0;03:58:01:419;-2.7569232;6.0740895;
0;03:58:01:430;-1.4688427;4.0497923;
0;03:58:01:440;5.088876;8.081628;
0;03:58:01:450;-4.033033;11.544841;
0;03:58:01:461;2.9508536;19.603724;
0;03:58:01:471;1.8339585;-0.14844051;
0;03:58:01:482;-2.042254;9.682152;
0;03:58:01:492;-8.231265;17.14847;
0;03:58:01:503;-1.6831238;-5.5030727;
0;03:58:01:513;-1.5885528;11.287464;
0;03:58:01:524;-5.16549;4.6279917;
0;03:58:01:534;-8.531737;-1.6077064;
0;03:58:01:545;2.9376855;6.1100025;
0;03:58:01:555;-2.5210943;-3.2237926;
0;03:58:01:566;1.1049241;2.6479871;
0;03:58:01:576;0.6751649;-3.0334535;
0;03:58:01:587;-0.4441244;1.3970166;
0;03:58:01:597;-0.4297592;9.012972;
0;03:58:01:609;2.3331497;4.5645456;
0;03:58:01:620;-6.1076083;-0.35913026;
0;03:58:01:629;-2.2421699;0.11133038;
0;03:58:01:640;1.5646108;-4.8745947;
0;03:58:01:650;-1.5981296;0.021547815;
0;03:58:01:660;-4.4963107;4.582502;
0;03:58:01:670;2.835932;3.3387144;
0;03:58:01:680;5.023035;8.418014;
0;03:58:01:690;0.7374141;2.098518;
0;03:58:01:700;-2.96881;7.8865004;
0;03:58:01:710;3.9205053;-3.1387985;
0;03:58:01:720;-1.6723499;0.90859956;
0;03:58:01:730;3.6715083;5.99149;
0;03:58:01:741;2.504335;8.328231;
0;03:58:01:751;-1.8219875;5.6922145;
0;03:58:01:761;-1.4065934;3.7134068;
0;03:58:01:772;-3.892972;4.938041;
0;03:58:01:781;1.6747441;1.7310078;
0;03:58:01:795;1.9177556;2.468422;
0;03:58:01:805;-3.7241807;0.108936176;
0;03:58:01:816;-6.221333;3.1627405;
0;03:58:01:826;2.4971523;3.229778;
0;03:58:01:837;-0.14963761;2.100912;
0;03:58:01:847;-1.1563994;-3.9743748;
0;03:58:01:858;0.12330139;4.5753193;
0;03:58:01:868;-8.027759;-2.3666685;
0;03:58:01:879;-4.402937;1.1923125;
0;03:58:01:889;0.8714894;2.0841527;
0;03:58:01:900;18.41261;1.42455;
0;03:58:01:909;0.36391866;-3.4871547;
0;03:58:01:919;0.0047884034;-0.1412579;
0;03:58:01:930;3.4823663;0.39384618;
0;03:58:01:940;1.733402;0.24301147;
0;03:58:01:950;-4.2341456;6.2943563;
0;03:58:01:960;6.3566055;1.1228806;
0;03:58:01:970;-4.144363;-1.246182;
0;03:58:01:980;-8.007407;0.22385786;
0;03:58:01:990;-5.3247046;0.092176765;
0;03:58:02:000;1.851915;3.13401;
0;03:58:02:011;10.518925;-0.2873042;
0;03:58:02:020;0.44771573;-0.11611878;
0;03:58:02:031;-3.1387985;4.771644;
0;03:58:02:040;-8.639477;-0.25498247;
0;03:58:02:050;-3.2393548;-3.4847605;
0;03:58:02:060;-0.6907272;-1.8722657;
0;03:58:02:070;5.0014873;-4.0665517;
0;03:58:02:080;10.523713;-2.9520507;
0;03:58:02:090;-7.8062944;0.24660277;
0;03:58:02:100;4.9069166;6.803124;
0;03:58:02:110;0.82480246;-0.19033903;
0;03:58:02:120;0.039504327;4.638766;
0;03:58:02:131;4.4436383;0.6691794;
0;03:58:02:142;-3.9683893;-5.9124813;
0;03:58:02:153;3.9384618;-4.068946;
0;03:58:02:164;3.4488475;0.8750807;
0;03:58:02:175;6.10282;1.1300632;
0;03:58:02:186;0.5351041;-1.0642227;
0;03:58:02:197;-2.4648306;0.32561144;
0;03:58:02:208;5.5150437;-2.3953989;
0;03:58:02:219;-0.6859388;-4.5872903;
0;03:58:02:230;3.8953662;-2.4492683;
0;03:58:02:240;6.179435;-2.7736826;
0;03:58:02:250;8.09719;2.9747956;
0;03:58:02:260;0.6727707;-1.1803415;
0;03:58:02:270;5.2397103;-0.59735334;
0;03:58:02:280;3.5075054;2.0614076;
0;03:58:02:290;4.542998;-0.33518824;
0;03:58:02:301;1.0965444;-0.21188685;
0;03:58:02:312;-1.3359646;-4.4184995;
0;03:58:02:323;-1.6364368;-1.271321;
0;03:58:02:334;8.249222;5.907693;
0;03:58:02:345;-0.92057055;2.8431146;
0;03:58:02:354;0.6584055;-5.601235;
0;03:58:02:365;4.8039656;-1.578976;
0;03:58:02:375;-1.9452889;-4.8506527;
0;03:58:02:385;6.184223;3.156755;
0;03:58:02:396;-0.4201824;3.157952;
0;03:58:02:407;0.49320555;4.0438066;
0;03:58:02:417;10.409989;0.22984336;
0;03:58:02:428;-0.78888947;0.688333;
0;03:58:02:438;-8.212111;-6.9707184;
0;03:58:02:448;-5.5401826;-4.8362875;
0;03:58:02:458;-4.572925;-5.1367598;
0;03:58:02:469;-8.255207;-5.1367598;
0;03:58:02:479;3.7002387;0.089782566;
0;03:58:02:489;-7.133524;-2.5761611;
0;03:58:02:499;9.514558;6.3218894;
0;03:58:02:509;-3.3399115;0.51235914;
0;03:58:02:519;-2.493561;3.6882677;
0;03:58:02:529;-0.7577648;2.327164;
0;03:58:02:540;8.870518;-3.7457285;
0;03:58:02:550;-5.3845596;-4.009091;
0;03:58:02:560;-0.07062895;-5.2840033;
0;03:58:02:570;-2.9700072;-2.1823149;
0;03:58:02:580;1.1827357;-2.3930047;
0;03:58:02:591;1.4293385;-2.597709;
0;03:58:02:602;-4.0976763;3.6020765;
0;03:58:02:612;7.777564;0.5566519;
0;03:58:02:622;-2.4947581;-2.493561;
0;03:58:02:632;1.4688427;-2.5366566;
0;03:58:02:642;-5.42167;-4.677073;
0;03:58:02:655;1.8794483;-3.8127663;
0;03:58:02:666;-4.1503487;-1.8806454;
0;03:58:02:676;5.5509567;-2.3654714;
0;03:58:02:687;-5.878962;1.3443443;
0;03:58:02:697;-3.6487634;-3.4919431;
0;03:58:02:707;-8.394072;1.602918;
0;03:58:02:718;3.9456444;-2.6647465;
0;03:58:02:728;-5.433641;-2.6036944;
0;03:58:02:738;5.097255;-3.550601;
0;03:58:02:748;-4.6339774;-2.885013;
0;03:58:02:758;7.0928226;-2.2242134;
0;03:58:02:768;-9.615114;-5.613206;
0;03:58:02:778;-9.166202;-2.9029696;
0;03:58:02:789;12.196063;1.0462662;
0;03:58:02:799;5.7005944;-1.0366893;
0;03:58:02:810;-0.40701428;0.32321724;
0;03:58:02:821;-9.8916445;-2.4528596;
0;03:58:02:832;6.8103065;1.8471266;
0;03:58:02:842;2.5103204;0.3184288;
0;03:58:02:853;0.85473;2.9951463;
0;03:58:02:863;-6.8246717;2.4887726;
0;03:58:02:874;-5.5521536;-4.0737343;
0;03:58:02:884;6.6103907;-0.48722005;
0;03:58:02:895;1.520318;4.9081135;
0;03:58:02:905;0.50637364;6.7839704;
0;03:58:02:916;1.6603789;-0.4417302;
0;03:58:02:926;-0.48841715;1.376666;
0;03:58:02:936;-4.309563;-3.8067808;
0;03:58:02:947;-1.7357962;-0.16639702;
0;03:58:02:958;1.9967642;3.8989575;
0;03:58:02:969;-3.7421372;1.6699557;
0;03:58:02:980;5.9783216;-2.468422;
0;03:58:02:990;3.430891;2.1428106;
0;03:58:03:000;-3.2381577;-6.955156;
0;03:58:03:011;-3.405752;2.1990743;
0;03:58:03:020;3.6822822;9.792285;
0;03:58:03:030;-5.081693;-5.0374002;
0;03:58:03:041;-0.7350199;2.814384;
0;03:58:03:052;4.3059716;-3.9995139;
0;03:58:03:063;12.429498;-0.7254431;
0;03:58:03:073;-4.4723687;6.3829417;
0;03:58:03:083;3.0454245;-1.9788077;
0;03:58:03:093;-9.441534;1.0019734;
0;03:58:03:103;-6.745663;-0.94570965;
0;03:58:03:113;1.8938135;-4.8362875;
0;03:58:03:124;-3.7361517;-1.5969325;
0;03:58:03:133;4.83509;-3.145981;
0;03:58:03:144;-4.689044;-5.7855883;
0;03:58:03:154;2.955642;-3.13401;
0;03:58:03:164;2.8562827;-3.7134068;
0;03:58:03:174;0.3866636;5.175067;
0;03:58:03:184;-4.6962266;0.5482722;
0;03:58:03:194;9.900024;1.5849615;
0;03:58:03:205;4.7548847;-1.3431472;
0;03:58:03:216;-6.209362;-3.738546;
0;03:58:03:227;-2.4744074;-3.4261026;
0;03:58:03:238;1.2653356;-1.0726024;
0;03:58:03:249;4.832696;4.7860093;
0;03:58:03:259;-0.34835634;4.0653543;
0;03:58:03:269;-3.3315318;-3.3135753;
0;03:58:03:279;3.7493198;2.100912;
0;03:58:03:289;-6.3601966;-5.9148755;
0;03:58:03:299;0.9756372;2.0602105;
0;03:58:03:310;4.0402155;1.5382746;
0;03:58:03:321;-10.477027;0.62608373;
0;03:58:03:332;0.37469256;-4.859032;
0;03:58:03:343;-3.2573113;-1.1575965;
0;03:58:03:354;2.6156654;-2.96881;
0;03:58:03:365;-1.7190368;1.4293385;
0;03:58:03:375;3.122039;-0.8439561;
0;03:58:03:385;5.4168816;-0.89662856;
0;03:58:03:395;1.1097125;0.7649474;
0;03:58:03:405;0.62847793;-1.6795325;
0;03:58:03:415;2.516306;0.11133038;
0;03:58:03:425;-5.183447;-3.7780502;
0;03:58:03:436;11.2371855;-0.9744401;
0;03:58:03:446;2.3116016;-0.8463503;
0;03:58:03:455;-3.764882;-1.1683705;
0;03:58:03:466;-4.2161894;-0.58777654;
0;03:58:03:477;-0.7026982;-1.4221559;
0;03:58:03:488;8.41921;1.661576;
0;03:58:03:499;0.088585466;-1.9536686;
0;03:58:03:510;5.076905;0.91458505;
0;03:58:03:519;2.7269957;-1.3024458;
0;03:58:03:530;1.2509704;-2.4145525;
0;03:58:03:540;-4.31914;-3.1232362;
0;03:58:03:551;-0.22385786;0.16160862;
0;03:58:03:562;4.2066126;0.7589619;
0;03:58:03:573;2.9987376;1.7238252;
0;03:58:03:584;0.15801731;-0.037110128;
0;03:58:03:595;-0.8762778;0.92176765;
0;03:58:03:606;-5.946;1.1145009;
0;03:58:03:616;-1.1312603;4.465186;
0;03:58:03:627;3.846285;-4.6016555;
0;03:58:03:637;1.460463;-1.6962919;
0;03:58:03:648;1.6184803;0.7314286;
0;03:58:03:659;-8.403648;2.6850972;
0;03:58:03:670;4.522647;5.100847;
0;03:58:03:681;0.5781997;-0.25977087;
0;03:58:03:692;1.8531121;4.921282;
0;03:58:03:703;-6.609194;1.2162545;
0;03:58:03:714;2.086547;3.071761;
0;03:58:03:725;-2.1176715;-0.9900024;
0;03:58:03:734;4.6710877;5.9244523;
0;03:58:03:744;1.472434;2.8502972;
0;03:58:03:754;-4.060566;4.3167458;
0;03:58:03:764;4.7058034;2.1188686;
0;03:58:03:774;-8.98903;-4.4927197;
0;03:58:03:784;-0.2789245;-3.5865142;
0;03:58:03:794;-5.48751;-2.3594859;
0;03:58:03:804;4.560954;2.7700913;
0;03:58:03:814;1.2270284;-1.6627731;
0;03:58:03:825;6.8988924;-1.6280571;
0;03:58:03:836;6.8988924;-1.6280571;
0;03:58:03:847;0.6332663;2.2816741;
0;03:58:03:857;10.432734;10.653001;
0;03:58:03:868;-2.943671;3.4440591;
0;03:58:03:878;-9.787497;1.3383588;
0;03:58:03:888;1.7681179;-0.02633622;
1;03:58:03:899;0.9756372;1.4197617;
1;03:58:03:909;-6.7324953;3.3075895;
1;03:58:03:919;-6.7324953;3.3075895;
1;03:58:03:930;6.5349736;2.801216;
1;03:58:03:939;1.6244658;2.1176715;
1;03:58:03:950;1.6244658;2.1176715;
1;03:58:03:959;1.6244658;2.1176715;
1;03:58:03:970;1.6244658;2.1176715;
1;03:58:03:980;1.6244658;2.1176715;
1;03:58:03:991;1.6244658;2.1176715;
1;03:58:04:001;-1.661576;-6.482301;
1;03:58:04:012;-1.661576;-6.482301;
1;03:58:04:022;-1.661576;-6.482301;
1;03:58:04:033;-0.59855044;-3.8642416;
1;03:58:04:043;6.685808;3.3722332;
1;03:58:04:054;-6.563704;-3.954024;
1;03:58:04:064;-1.0618285;-2.4612393;
1;03:58:04:073;-5.626374;-1.4903905;
1;03:58:04:083;-1.9871874;3.3554738;
1;03:58:04:094;4.5118732;0.31244332;
1;03:58:04:104;5.518635;1.6316484;
1;03:58:04:114;-2.9484594;1.0450691;
1;03:58:04:124;0.79128367;-4.396951;
1;03:58:04:134;-9.251195;-5.3713913;
1;03:58:04:144;7.8517847;0.033518825;
1;03:58:04:155;-4.4699745;-1.7477672;
1;03:58:04:166;-1.0139444;3.5805287;
1;03:58:04:176;-3.7576995;-0.533907;
1;03:58:04:186;0.17477672;-0.8463503;
1;03:58:04:196;-1.5442601;0.47046062;
1;03:58:04:206;-14.020445;-1.4975731;
1;03:58:04:216;7.536947;2.846706;
1;03:58:04:227;-3.6176388;-2.0087352;
1;03:58:04:237;-4.1479545;1.7034745;
1;03:58:04:247;-1.8950106;-1.2689269;
1;03:58:04:258;5.121197;2.019509;
1;03:58:04:269;2.5091233;-2.3989902;
1;03:58:04:278;1.043872;-0.35075054;
1;03:58:04:289;8.274361;2.2218192;
1;03:58:04:299;-3.0250738;1.6352397;
1;03:58:04:310;-3.3039982;1.0067618;
1;03:58:04:320;4.655525;-2.0003555;
1;03:58:04:331;2.9819782;0.8643068;
1;03:58:04:340;7.789535;1.3850456;
1;03:58:04:351;-3.810372;1.3587095;
1;03:58:04:360;1.1061212;2.918532;
1;03:58:04:371;0.1400608;2.172738;
1;03:58:04:382;-4.441244;-4.9057193;
1;03:58:04:392;-0.40940848;-6.2105594;
1;03:58:04:403;-7.7667904;4.92607;
1;03:58:04:417;-7.431602;-0.20111294;
1;03:58:04:427;3.8115692;2.5438392;
1;03:58:04:437;3.7181952;-2.5187001;
1;03:58:04:448;-2.9125464;-4.7620673;
1;03:58:04:459;-3.38181;-1.1216835;
1;03:58:04:470;9.910798;8.469488;
1;03:58:04:481;-4.7201686;-4.985925;
1;03:58:04:492;8.236053;7.267599;
1;03:58:04:503;-3.6236243;-0.16879122;
1;03:58:04:514;-1.5981296;1.5933412;
1;03:58:04:524;5.8502316;-3.4751837;
1;03:58:04:534;1.5945383;-2.610877;
1;03:58:04:545;-2.1918917;6.220136;
1;03:58:04:556;1.6998832;5.943606;
1;03:58:04:566;-5.273229;-0.077811554;
1;03:58:04:577;-2.6144683;-0.91578215;
1;03:58:04:587;6.0010667;0.11372458;
1;03:58:04:598;3.1998506;-0.80924016;
1;03:58:04:608;-2.36188;-3.039439;
1;03:58:04:618;-11.781867;1.1408371;
1;03:58:04:630;1.9057846;0.8762778;
1;03:58:04:640;7.465121;4.999093;
1;03:58:04:650;-0.24420857;-6.6522894;
1;03:58:04:660;9.200917;-1.3323733;
1;03:58:04:670;-11.98657;1.9333179;
1;03:58:04:680;-1.8806454;7.076063;
1;03:58:04:690;4.43885;1.2030864;
1;03:58:04:700;5.0505686;-0.11731588;
1;03:58:04:711;-1.6364368;-4.5645456;
1;03:58:04:722;4.4448357;1.9416976;
1;03:58:04:733;0.11731588;-0.0035913025;
1;03:58:04:744;-4.808754;0.7374141;
1;03:58:04:754;5.6419363;-1.5239093;
1;03:58:04:764;1.412579;-0.90021986;
1;03:58:04:774;1.4616601;2.4887726;
1;03:58:04:784;-12.016499;-1.377863;
1;03:58:04:794;14.923059;-3.288436;
1;03:58:04:805;14.435839;7.9631147;
1;03:58:04:816;7.255628;-4.2700586;
1;03:58:04:826;-1.0199299;1.520318;
1;03:58:04:837;8.942344;-2.3175871;
1;03:58:04:847;8.274361;-1.9321208;
1;03:58:04:857;1.9524715;-1.4305356;
1;03:58:04:868;-5.1798553;0.5231331;
1;03:58:04:879;-3.2848446;4.0054994;
1;03:58:04:890;8.049306;-5.9926867;
1;03:58:04:900;-3.3051953;1.0151415;
1;03:58:04:910;-0.5554548;-1.3443443;
1;03:58:04:920;-1.697489;-0.08379706;
1;03:58:04:930;-0.9828198;-1.2150574;
1;03:58:04:940;3.6116533;1.6304513;
1;03:58:04:951;-0.074220255;1.9129672;
1;03:58:04:961;1.8243817;4.1515455;
1;03:58:04:971;-10.625467;-4.3658266;
1;03:58:04:982;0.48362875;-3.454833;
1;03:58:04:993;-10.794258;-2.657564;
1;03:58:05:004;-3.039439;-1.555034;
1;03:58:05:015;-4.143166;-0.061052144;
1;03:58:05:026;-7.8182654;-4.0378213;
1;03:58:05:036;-12.440272;1.7142484;
1;03:58:05:047;-4.5633483;-3.41892;
1;03:58:05:058;-13.381193;-5.547365;
1;03:58:05:069;-11.621455;0.8810662;
1;03:58:05:080;-10.748769;-2.6180596;
1;03:58:05:090;2.7605145;-2.2960393;
1;03:58:05:100;-1.9393034;-1.7441759;
1;03:58:05:110;-8.135497;-0.7062895;
1;03:58:05:121;-7.380127;-3.7553053;
1;03:58:05:131;-5.294777;-5.567716;
1;03:58:05:140;-12.768278;-1.3479356;
1;03:58:05:150;1.7010803;-0.79487497;
1;03:58:05:160;-8.428787;-2.8275523;
1;03:58:05:170;-1.5442601;-4.188656;
1;03:58:05:181;-7.2568254;-1.3551182;
1;03:58:05:191;-11.798626;2.1571758;
1;03:58:05:201;-7.8158712;-1.5490485;
1;03:58:05:211;2.3295584;-2.0745757;
1;03:58:05:221;3.669114;-2.5713725;
1;03:58:05:232;-4.3143516;-6.1902084;
1;03:58:05:243;-4.9643774;-0.63087213;
1;03:58:05:254;-4.3622355;-2.9843724;
1;03:58:05:265;-7.419631;-2.7401638;
1;03:58:05:276;-9.00579;-1.6232687;
1;03:58:05:287;1.4077905;-1.2916719;
1;03:58:05:298;-5.9052987;-1.9237411;
1;03:58:05:309;0.31244332;0.9911995;
1;03:58:05:318;0.8535329;-4.8638206;
1;03:58:05:328;-3.393781;-2.6324248;
1;03:58:05:338;-4.417302;2.2349873;
1;03:58:05:348;-5.5150437;1.3491327;
1;03:58:05:358;-0.049081136;-0.9708488;
1;03:58:05:368;-8.346188;-6.1327477;
1;03:58:05:378;-2.6839;1.3754689;
1;03:58:05:388;-6.0441623;-2.2828712;
1;03:58:05:398;-9.557653;-1.6723499;
1;03:58:05:409;-8.186973;3.301604;
1;03:58:05:420;7.741651;-0.11133038;
1;03:58:05:431;0.5267244;-1.3982137;
1;03:58:05:442;-4.134786;2.3678656;
1;03:58:05:453;-2.110489;5.625177;
1;03:58:05:464;-3.9875429;0.076614454;
1;03:58:05:475;-2.3343468;4.035427;
1;03:58:05:485;-4.297592;-1.3623008;
1;03:58:05:495;0.78290397;0.8535329;
1;03:58:05:506;-4.5441947;2.4875755;
1;03:58:05:516;-8.817844;3.1854854;
1;03:58:05:527;-5.390545;0.51714754;
1;03:58:05:537;-11.11987;0.7577648;
1;03:58:05:548;-10.09994;-1.8722657;
1;03:58:05:558;2.8311436;5.9507885;
1;03:58:05:568;1.1563994;1.7860745;
1;03:58:05:579;-0.16160862;2.9137435;
1;03:58:05:590;-7.356185;2.9891608;
1;03:58:05:600;-1.4640543;0.9552865;
1;03:58:05:610;-5.446809;8.520964;
1;03:58:05:620;1.2617443;3.003526;
1;03:58:05:630;-3.8522706;5.566519;
1;03:58:05:640;1.6903064;4.709395;
1;03:58:05:650;-8.383297;1.7441759;
1;03:58:05:660;2.2589293;5.8741736;
1;03:58:05:670;3.2501287;3.8391025;
1;03:58:05:681;-2.9592333;2.1799207;
1;03:58:05:692;9.252393;3.6104562;
1;03:58:05:702;-2.005144;5.7149596;
1;03:58:05:712;-5.079299;1.3563153;
1;03:58:05:722;-6.0477533;5.1678843;
1;03:58:05:732;1.103727;0.7445967;
1;03:58:05:742;0.5386954;-0.320823;
1;03:58:05:752;6.0944405;3.6942532;
1;03:58:05:763;-2.4025815;3.3411086;
1;03:58:05:773;-0.78410107;3.9193082;
1;03:58:05:782;-0.37469256;6.247669;
1;03:58:05:792;-2.315193;-3.4033577;
1;03:58:05:803;2.6252422;-2.956839;
1;03:58:05:812;-5.9412117;1.9440918;
1;03:58:05:823;-1.8782512;5.603629;
1;03:58:05:834;4.0078936;9.240421;
1;03:58:05:845;9.791088;3.904943;
1;03:58:05:854;-11.456255;1.8543092;
1;03:58:05:864;3.7086184;0.7493851;
1;03:58:05:874;1.0989386;-2.778471;
1;03:58:05:884;-0.5231331;-0.25737667;
1;03:58:05:894;6.384139;0.50757074;
1;03:58:05:904;3.7313633;3.7074213;
1;03:58:05:914;-6.0681043;-0.59855044;
1;03:58:05:924;3.2202013;7.314286;
1;03:58:05:935;4.525041;1.1599907;
1;03:58:05:946;-0.9828198;2.7820623;
1;03:58:05:957;10.970232;6.0800753;
1;03:58:05:968;-7.285556;-4.9200845;
1;03:58:05:979;0.16879122;-0.5363012;
1;03:58:05:990;-3.1316159;-0.22625206;
1;03:58:06:001;-1.6496049;5.4384294;
1;03:58:06:011;-0.46088383;0.50757074;
1;03:58:06:021;1.9297266;7.553706;
1;03:58:06:031;9.996989;0.36511576;
1;03:58:06:041;-4.782418;0.62488663;
1;03:58:06:051;-2.8993783;-3.0202854;
1;03:58:06:061;-3.3207579;1.9572599;
1;03:58:06:072;2.906561;1.9081788;
1;03:58:06:083;-0.533907;4.140772;
1;03:58:06:093;-1.5646108;-0.50637364;
1;03:58:06:102;3.8953662;2.873042;
1;03:58:06:112;-0.88944596;-1.8375498;
1;03:58:06:123;-9.284714;-0.22266077;
1;03:58:06:132;1.2473791;0.6691794;
1;03:58:06:142;1.5298948;0.81761986;
1;03:58:06:152;2.5809495;3.1507695;
1;03:58:06:162;-1.2413936;-5.403713;
1;03:58:06:172;1.827973;2.4133554;
1;03:58:06:182;-7.599196;-2.7880478;
1;03:58:06:192;3.228581;0.533907;
1;03:58:06:202;3.3243492;-0.14844051;
1;03:58:06:212;0.5410896;0.7661445;
1;03:58:06:223;2.2780828;4.701015;
1;03:58:06:232;4.7548847;3.4392707;
1;03:58:06:243;-0.5398925;-7.01142;
1;03:58:06:253;8.00621;0.5542577;
1;03:58:06:264;1.8686744;1.887828;
1;03:58:06:275;-6.3985043;5.507861;
1;03:58:06:284;-8.930372;4.5166616;
1;03:58:06:294;-3.9133227;0.8367735;
1;03:58:06:304;0.79008657;-4.8494554;
1;03:58:06:314;7.836222;-0.51116204;
1;03:58:06:324;0.557849;-0.14963761;
1;03:58:06:334;-4.3658266;0.5650316;
1;03:58:06:345;-7.856573;1.0366893;
1;03:58:06:356;-0.6859388;4.368221;
1;03:58:06:367;-1.1109096;2.6503813;
1;03:58:06:377;7.953538;-3.0705638;
1;03:58:06:387;-5.483919;1.4688427;
1;03:58:06:397;-2.8083985;-0.34835634;
1;03:58:06:407;0.25857377;1.0606314;
1;03:58:06:417;0.015562311;2.0494366;
1;03:58:06:427;-3.3506854;-1.2449849;
1;03:58:06:437;0.51355624;5.469554;
1;03:58:06:447;-6.602011;-3.3782187;
1;03:58:06:458;-2.1571758;-3.0897174;
1;03:58:06:468;3.2501287;3.942053;
1;03:58:06:478;4.6279917;5.076905;
1;03:58:06:488;5.947197;1.5957354;
1;03:58:06:498;-5.6682725;-3.1112652;
1;03:58:06:508;0.40821138;-3.7684734;
1;03:58:06:518;-0.079008654;-2.2697031;
1;03:58:06:529;-8.099585;0.02873042;
1;03:58:06:540;5.901707;5.7424927;
1;03:58:06:551;-2.336741;1.1013328;
1;03:58:06:562;0.2813187;3.9348705;
1;03:58:06:572;3.156755;2.777274;
1;03:58:06:583;4.8243165;2.4420857;
1;03:58:06:594;-1.6891093;-0.70509243;
1;03:58:06:605;0.06703765;-1.7609353;
1;03:58:06:615;-12.872425;-1.1695676;
1;03:58:06:625;8.243237;-2.517503;
1;03:58:06:636;-4.413711;6.397307;
1;03:58:06:647;-8.75799;-0.37588966;
1;03:58:06:658;1.4616601;6.519411;
1;03:58:06:668;4.746505;1.4628572;
1;03:58:06:679;-5.2624555;-1.2617443;
1;03:58:06:690;11.554418;-4.9308586;
1;03:58:06:700;-8.492233;-6.7839704;
1;03:58:06:710;12.743138;-7.5920134;
1;03:58:06:720;-6.4284315;-7.955932;
1;03:58:06:731;7.0688806;1.7645266;
1;03:58:06:742;-4.429273;6.209362;
1;03:58:06:751;-4.961983;2.8766334;
1;03:58:06:761;2.0015526;1.4915876;
1;03:58:06:771;0.11133038;3.702633;
1;03:58:06:781;-1.8782512;4.590882;
1;03:58:06:791;-2.2936451;7.5345526;
1;03:58:06:802;0.088585466;3.608062;
1;03:58:06:813;2.0937295;0.6823475;
1;03:58:06:824;-3.9492357;-11.320983;
1;03:58:06:835;-4.2640734;-6.373365;
1;03:58:06:844;-3.357868;-20.460848;
1;03:58:06:854;11.74715;-4.703409;
1;03:58:06:864;24.809916;-5.777209;
1;03:58:06:874;20.111294;-12.152967;
1;03:58:06:885;17.7554;4.5872903;
1;03:58:06:896;13.315352;4.1455603;
1;03:58:06:907;-11.499351;-0.80205756;
1;03:58:06:917;-21.045033;14.481329;
1;03:58:06:927;2.9161377;-1.0498575;
1;03:58:06:937;9.953894;0.20470424;
1;03:58:06:948;-7.860164;2.5450363;
1;03:58:06:958;15.06312;6.291962;
1;03:58:06:968;23.264458;-5.023035;
1;03:58:06:978;13.692439;-0.60573304;
1;03:58:06:988;13.596671;-3.715801;
1;03:58:06:998;17.61055;-8.349778;
1;03:58:07:008;9.554062;-5.127183;
1;03:58:07:018;-5.4420204;2.5306711;
1;03:58:07:028;4.9536033;-12.090718;
1;03:58:07:038;12.938266;-2.1140802;
1;03:58:07:048;0.7386112;-7.07726;
1;03:58:07:058;13.229161;-6.429629;
1;03:58:07:069;9.742006;4.152743;
1;03:58:07:080;16.80969;-4.197036;
1;03:58:07:091;9.406818;-6.4511766;
1;03:58:07:102;2.695871;-1.1300632;
1;03:58:07:113;-8.954314;-4.1623197;
1;03:58:07:124;-10.700885;-12.935872;
1;03:58:07:134;18.735825;6.081272;
1;03:58:07:144;5.21936;-4.0976763;
1;03:58:07:154;-4.8015714;-6.932411;
1;03:58:07:164;15.693993;0.78888947;
1;03:58:07:175;6.4667387;-7.4615297;
1;03:58:07:186;13.84088;5.99149;
1;03:58:07:197;14.167688;-6.941988;
1;03:58:07:207;-2.0937295;5.583278;
1;03:58:07:217;19.011158;-7.575254;
1;03:58:07:228;8.152257;0.6943185;
1;03:58:07:239;6.0597243;0.4177882;
1;03:58:07:250;2.6431987;-1.9165585;
1;03:58:07:261;12.86644;-2.9293058;
1;03:58:07:270;-7.9810715;-0.32920274;
1;03:58:07:280;8.562862;-4.012682;
1;03:58:07:290;5.791574;-2.4289176;
1;03:58:07:300;8.862138;-3.3435028;
1;03:58:07:310;20.757729;-2.9867666;
1;03:58:07:320;3.2022448;-1.5358804;
1;03:58:07:331;9.234436;-5.3139305;
1;03:58:07:342;10.864887;-0.8559271;
1;03:58:07:353;3.3842041;-4.1862617;
1;03:58:07:364;14.271836;3.3435028;
1;03:58:07:375;3.98874;-7.2592196;
1;03:58:07:386;8.863335;0.35434186;
1;03:58:07:396;-0.1448492;-3.867833;
1;03:58:07:407;4.322731;-1.5478514;
1;03:58:07:417;7.4124484;-6.6247563;
1;03:58:07:428;11.653777;-5.281609;
1;03:58:07:438;11.653777;-5.281609;
1;03:58:07:448;5.8622026;-0.5410896;
1;03:58:07:458;0.664391;-0.5494693;
1;03:58:07:469;0.664391;-0.5494693;
1;03:58:07:480;5.471948;3.276465;
1;03:58:07:490;8.810662;1.9165585;
1;03:58:07:501;15.109807;0.9840169;
1;03:58:07:511;5.5641246;9.197326;
1;03:58:07:521;-0.6488287;0.80086046;
1;03:58:07:532;0.023942016;7.6590514;
1;03:58:07:543;7.1143703;5.649119;
1;03:58:07:554;2.0278888;2.6431987;
1;03:58:07:564;-0.06344634;3.8534677;
1;03:58:07:573;3.0226796;3.3423057;
1;03:58:07:583;3.7313633;4.1838675;
1;03:58:07:593;-4.1706996;2.6048915;
1;03:58:07:604;7.016208;1.5693992;
1;03:58:07:615;-2.4732103;5.580884;
1;03:58:07:626;6.6271505;3.0466216;
1;03:58:07:636;2.56419;4.8027687;
1;03:58:07:646;-6.149507;0.62009823;
1;03:58:07:657;-4.699818;4.6160207;
1;03:58:07:668;-4.225766;4.993108;
1;03:58:07:678;3.1914709;6.4547677;
1;03:58:07:688;-7.285556;0.08379706;
1;03:58:07:698;-9.097966;2.5019407;
1;03:58:07:708;-1.7992426;3.2225955;
1;03:58:07:718;-4.8841715;3.8522706;
1;03:58:07:729;5.42167;0.8391677;
1;03:58:07:739;-2.1763294;0.6452374;
1;03:58:07:750;-0.5231331;6.2608376;
1;03:58:07:761;-7.40766;0.8571242;
1;03:58:07:772;-6.211756;6.0944405;
1;03:58:07:782;-2.9017725;-0.18674773;
1;03:58:07:792;-4.0701427;2.1152773;
1;03:58:07:803;-0.89184016;4.8877625;
1;03:58:07:812;1.4496891;6.5840545;
1;03:58:07:823;0.4213795;-0.3878607;
1;03:58:07:833;13.864822;2.4708161;
1;03:58:07:843;-3.4883518;2.5689783;
1;03:58:07:853;-4.6351743;3.5913026;
1;03:58:07:863;9.156625;5.0601454;
1;03:58:07:874;-7.1047935;-1.3000516;
1;03:58:07:883;0.9720459;3.594894;
1;03:58:07:893;2.4947581;1.0905589;
1;03:58:07:904;-8.379706;-0.11611878;
1;03:58:07:914;-0.5518635;2.0171149;
1;03:58:07:925;2.7449522;2.5007436;
1;03:58:07:935;4.6591167;-0.46447513;
1;03:58:07:950;4.050989;6.2644286;
1;03:58:07:961;6.2704144;2.7940333;
1;03:58:07:971;-5.719748;-3.78643;
1;03:58:07:981;-4.55856;-0.700304;
1;03:58:07:991;2.0147207;2.4899697;
1;03:58:08:001;-4.2102036;3.288436;
1;03:58:08:012;5.747281;6.963536;
1;03:58:08:023;-4.4196963;-2.1978772;
1;03:58:08:033;-12.740745;-4.4364557;
1;03:58:08:043;-3.7074213;2.7760768;
1;03:58:08:053;8.65025;2.3894134;
1;03:58:08:063;-0.90859956;5.092467;
1;03:58:08:073;-3.620033;-0.19871874;
1;03:58:08:083;4.6244006;-0.21308395;
1;03:58:08:094;0.32680854;3.156755;
1;03:58:08:104;-1.0726024;0.93373865;
1;03:58:08:115;2.1200657;2.7150247;
1;03:58:08:124;-7.5082164;3.4680011;
1;03:58:08:134;-0.59136784;2.349909;
1;03:58:08:144;0.08619126;3.928885;
1;03:58:08:155;-6.194997;-0.4225766;
1;03:58:08:165;1.3132197;2.5881321;
1;03:58:08:176;3.762488;-7.6889787;
1;03:58:08:187;-5.935226;5.710171;
1;03:58:08:197;-0.1340753;1.2437878;
1;03:58:08:208;-13.996503;-4.6686935;
1;03:58:08:219;-3.1136594;6.293159;
1;03:58:08:229;-22.386984;-10.97502;
1;03:58:08:240;-9.398438;-1.697489;
1;03:58:08:250;-7.5070195;1.6519991;
1;03:58:08:260;-11.474212;-4.868609;
1;03:58:08:271;-0.2681506;6.3446345;
1;03:58:08:281;-3.4380736;-4.277241;
1;03:58:08:292;-2.0254946;2.207454;
1;03:58:08:302;-3.5984852;6.721721;
1;03:58:08:313;0.8774749;-5.710171;
1;03:58:08:324;-0.33638534;-5.555745;
1;03:58:08:335;-15.676036;-4.435259;
1;03:58:08:345;-4.76925;-3.1783028;
1;03:58:08:355;-6.6067996;-7.047333;
1;03:58:08:365;-12.854469;-4.996699;
1;03:58:08:375;1.8722657;3.063381;
1;03:58:08:386;-10.981006;-4.699818;
1;03:58:08:397;0.2861071;-1.8866309;
1;03:58:08:407;-22.403742;-5.4659624;
1;03:58:08:417;-8.863335;-3.8259344;
1;03:58:08:428;-7.339425;-4.6100354;
1;03:58:08:438;1.3443443;4.7261543;
1;03:58:08:449;-8.635885;-7.241263;
1;03:58:08:460;-12.735956;-5.0745106;
1;03:58:08:470;-6.4068837;1.7369933;
1;03:58:08:480;-3.6248214;-4.050989;
1;03:58:08:490;-8.22528;3.8271315;
1;03:58:08:501;-8.986636;-6.645107;
1;03:58:08:512;-9.440337;1.1480197;
1;03:58:08:522;-10.284293;-3.4967315;
1;03:58:08:532;-12.585121;-2.3020248;
1;03:58:08:543;-10.014946;-2.883816;
1;03:58:08:554;-8.064868;-4.0402155;
1;03:58:08:564;-7.219715;-9.333796;
1;03:58:08:575;-15.794549;-4.047398;
1;03:58:08:585;2.895787;-6.3182983;
1;03:58:08:596;-14.329297;-2.2409728;
1;03:58:08:607;-1.2677298;0.8714894;
1;03:58:08:618;-0.30286652;-1.2162545;
1;03:58:08:628;-14.033613;-1.7681179;
1;03:58:08:638;-10.433931;-2.5605986;
1;03:58:08:648;-4.1599255;0.29927522;
1;03:58:08:658;-0.5291186;-1.1444284;
1;03:58:08:668;-0.6440403;-1.7046716;
1;03:58:08:678;-16.1453;3.311181;
1;03:58:08:689;-6.38773;1.2294226;
1;03:58:08:700;-22.465992;-2.6312277;
1;03:58:08:711;-14.797363;-10.710462;
1;03:58:08:722;-8.963891;-1.1288661;
1;03:58:08:732;4.1359835;-2.1296425;
1;03:58:08:743;6.4128695;0.58657944;
1;03:58:08:754;-1.5765818;7.339425;
1;03:58:08:764;-11.650186;2.3199813;
1;03:58:08:774;-7.9451585;2.5689783;
1;03:58:08:785;1.1133038;7.8972745;
1;03:58:08:796;-0.8619126;10.607511;
1;03:58:08:807;-3.4991257;5.4085016;
1;03:58:08:818;0.79367787;5.3438582;
1;03:58:08:828;-2.100912;7.5285673;
1;03:58:08:839;-3.5003228;8.907627;
1;03:58:08:849;-1.1683705;9.703699;
1;03:58:08:859;-6.6534867;6.7372837;
1;03:58:08:870;-12.5504055;-1.638831;
1;03:58:08:880;-19.947292;-0.9744401;
1;03:58:08:890;-6.612785;1.5933412;
1;03:58:08:901;-8.573636;-1.9548657;
1;03:58:08:911;10.884041;7.2867527;
1;03:58:08:921;4.701015;-5.955577;
1;03:58:08:931;-0.35194764;-3.083732;
1;03:58:08:942;3.3063924;3.8762126;
1;03:58:08:953;-4.9176903;6.194997;
1;03:58:08:963;-2.3918076;0.8846575;
1;03:58:08:974;0.40821138;10.617087;
1;03:58:08:983;2.0602105;5.710171;
1;03:58:08:993;0.31004912;5.8203044;
1;03:58:09:004;1.5957354;11.664551;
1;03:58:09:015;-8.494628;1.8794483;
1;03:58:09:025;-7.141904;7.678205;
1;03:58:09:035;-7.1083846;2.0410569;
1;03:58:09:046;2.5103204;3.8977604;
1;03:58:09:057;16.411055;5.33907;
1;03:58:09:068;9.279925;-8.969876;
1;03:58:09:078;10.436325;-4.080917;
1;03:58:09:089;-17.184383;0.11851298;
1;03:58:09:099;0.0035913025;24.523808;
1;03:58:09:110;3.0142999;-0.8535329;
1;03:58:09:121;1.7872716;3.3686419;
1;03:58:09:131;-4.048595;8.791509;
1;03:58:09:142;-6.1926026;2.1523874;
1;03:58:09:152;0.62728083;4.6471453;
1;03:58:09:163;-13.559562;-1.9081788;
1;03:58:09:174;1.1611878;3.7481227;
1;03:58:09:184;-10.710462;-10.448297;
1;03:58:09:194;9.363723;-0.8738836;
1;03:58:09:205;1.9081788;-5.100847;
1;03:58:09:216;-1.9752164;0.34596214;
1;03:58:09:226;-0.7302315;0.5470751;
1;03:58:09:237;1.757344;2.7964275;
1;03:58:09:248;0.47524905;4.560954;
1;03:58:09:258;-9.069236;1.0977415;
1;03:58:09:269;2.730587;1.1803415;
1;03:58:09:279;3.8881836;1.2485762;
1;03:58:09:290;0.89902276;0.50517654;
1;03:58:09:300;0.39863458;8.523358;
1;03:58:09:311;-4.483143;-0.8690952;
1;03:58:09:321;4.2904096;8.121132;
1;03:58:09:332;-8.540117;-3.78643;
1;03:58:09:342;-3.004723;-0.49919105;
1;03:58:09:352;-9.683349;2.5809495;
1;03:58:09:363;4.959589;-0.3196259;
1;03:58:09:373;-1.6340426;7.7452426;
1;03:58:09:384;0.48722005;-1.079785;
1;03:58:09:394;-1.9955671;2.3810337;
1;03:58:09:405;-5.1547165;0.94451255;
1;03:58:09:416;-2.4229321;-1.0414777;
1;03:58:09:427;6.197391;3.6499605;
1;03:58:09:437;6.2285156;-0.033518825;
1;03:58:09:447;4.368221;0.33877954;
1;03:58:09:458;-4.2042184;1.6603789;
1;03:58:09:468;11.663354;2.2756886;
1;03:58:09:479;8.865729;-1.115698;
1;03:58:09:489;9.022549;4.3993454;
1;03:58:09:499;2.598906;-3.4632127;
1;03:58:09:510;-2.0171149;-3.1854854;
1;03:58:09:520;7.97748;-1.1935096;
1;03:58:09:531;4.9787426;2.3080103;
1;03:58:09:542;-3.9121256;0.4237737;
1;03:58:09:552;10.839748;2.5462334;
1;03:58:09:562;3.9827545;-4.248511;
1;03:58:09:573;4.2078094;-0.61530983;
1;03:58:09:584;9.3182335;1.9608512;
1;03:58:09:594;-1.1911154;0.79248077;
1;03:58:09:604;-1.6519991;-6.1806316;
1;03:58:09:615;3.1998506;3.2824504;
1;03:58:09:626;2.9412768;0.82599956;
1;03:58:09:637;9.787497;5.961562;
1;03:58:09:648;-0.25977087;-4.1012673;
1;03:58:09:658;-5.401319;0.18794483;
1;03:58:09:668;-1.0342951;-0.49200845;
1;03:58:09:679;0.79128367;-0.59615624;
1;03:58:09:690;0.4261679;6.781576;
1;03:58:09:701;-0.092176765;-1.9764135;
1;03:58:09:712;3.2489316;8.558074;
1;03:58:09:723;3.003526;1.8902222;
1;03:58:09:733;-1.0390835;-0.8463503;
1;03:58:09:744;-1.0390835;-0.8463503;
1;03:58:09:754;10.011354;1.5765818;
1;03:58:09:765;7.433996;0.50876784;
1;03:58:09:775;1.3994108;-5.1235914;
1;03:58:09:785;11.224017;1.9117701;
1;03:58:09:795;0.79487497;0.12689269;
1;03:58:09:805;9.475053;-2.693477;
1;03:58:09:816;0.20350714;5.535394;
1;03:58:09:826;11.591528;-0.24181437;
1;03:58:09:837;5.5258174;-2.2996306;
1;03:58:09:847;7.5429325;5.0721164;
1;03:58:09:857;4.572925;0.91578215;
1;03:58:09:867;5.9771247;2.5222914;
1;03:58:09:877;3.78643;-0.94570965;
1;03:58:09:887;4.959589;-2.753332;
1;03:58:09:898;-6.8079123;3.6236243;
1;03:58:09:908;-3.1399956;-5.7867856;
1;03:58:09:919;-12.0727625;-2.7952304;
1;03:58:09:929;12.099098;0.7302315;
1;03:58:09:940;7.5584946;1.3467385;
1;03:58:09:950;0.81283146;4.368221;
1;03:58:09:960;1.0043676;-2.1631613;
1;03:58:09:971;4.036624;1.2725182;
1;03:58:09:982;7.550115;2.743755;
1;03:58:09:993;7.7129207;3.4883518;
1;03:58:10:003;11.8022175;3.964798;
1;03:58:10:014;10.183737;4.5154643;
1;03:58:10:025;8.391677;3.989937;
1;03:58:10:035;3.3423057;-6.1566896;
1;03:58:10:046;14.300567;0.48123455;
1;03:58:10:056;1.1444284;1.5574282;
1;03:58:10:066;5.389348;-1.6986861;
1;03:58:10:077;1.2773066;2.36188;
1;03:58:10:088;12.199655;-3.1771057;
1;03:58:10:098;6.8689647;0.7015011;
1;03:58:10:109;4.793192;1.0354922;
1;03:58:10:120;5.837064;1.5741876;
1;03:58:10:130;3.693056;1.1480197;
1;03:58:10:141;11.501745;-0.6775591;
1;03:58:10:151;1.1815386;-0.2633622;
1;03:58:10:162;5.415684;-4.542998;
1;03:58:10:172;5.3965306;-4.404134;
1;03:58:10:183;4.0378213;7.3310456;
1;03:58:10:193;3.6978445;-2.079364;
1;03:58:10:204;12.665327;4.6926355;
1;03:58:10:214;6.467936;0.6739678;
1;03:58:10:225;0.5758055;2.791639;
1;03:58:10:235;5.2528787;3.6415808;
1;03:58:10:245;2.6982653;0.59136784;
1;03:58:10:256;2.19668;-0.81163436;
1;03:58:10:265;-0.5770026;0.051475335;
1;03:58:10:276;-3.98874;1.7944542;
1;03:58:10:286;-1.0666169;-2.633622;
1;03:58:10:296;4.5118732;0.50158525;
1;03:58:10:306;-4.4568067;0.91458505;
1;03:58:10:317;3.527856;2.6647465;
1;03:58:10:328;-9.169792;-1.3934253;
1;03:58:10:339;-7.2711906;-6.5206084;
1;03:58:10:349;-8.093599;-6.2991447;
1;03:58:10:360;-5.8226986;0.47764325;
1;03:58:10:370;-3.3638535;-8.524555;
1;03:58:10:381;-10.933122;-1.316811;
1;03:58:10:390;-12.220005;-8.457518;
1;03:58:10:400;-3.1663318;7.0964136;
1;03:58:10:410;-18.810045;-2.2110453;
1;03:58:10:421;-7.3873096;-6.55293;
1;03:58:10:432;-4.1958385;3.6607344;
1;03:58:10:442;-11.446678;0.41180268;
1;03:58:10:453;-4.68665;1.3000516;
1;03:58:10:463;-3.3662477;0.52073884;
1;03:58:10:474;-17.022774;-2.6563668;
1;03:58:10:485;-4.201824;2.4265234;
1;03:58:10:494;-15.192407;2.60968;
1;03:58:10:504;-9.721656;-4.903325;
1;03:58:10:514;-11.59871;-3.9432502;
1;03:58:10:525;-6.459556;7.538144;
1;03:58:10:536;-6.8318543;-3.4943373;
1;03:58:10:546;-12.126632;3.9731777;
1;03:58:10:557;-10.582372;-5.935226;
1;03:58:10:568;-9.012972;3.4883518;
1;03:58:10:578;8.89805;1.1947067;
1;03:58:10:589;-16.437391;-7.813477;
1;03:58:10:600;0.90141696;4.1958385;
1;03:58:10:610;-19.16319;-8.49343;
1;03:58:10:621;0.6691794;4.3167458;
1;03:58:10:631;-13.472173;0.9923966;
1;03:58:10:641;-12.20564;-2.2254105;
1;03:58:10:652;-0.32920274;-3.8510735;
1;03:58:10:662;-14.306552;6.0764837;
1;03:58:10:673;-11.046846;-5.6419363;
1;03:58:10:683;-12.543222;-2.1284454;
1;03:58:10:693;1.7393875;3.8510735;
1;03:58:10:704;-8.336611;-1.5239093;
1;03:58:10:715;-2.135628;-2.2421699;
1;03:58:10:726;-8.856153;3.429694;
1;03:58:10:736;2.4708161;0.12449849;
1;03:58:10:746;-9.935937;-4.4077253;
1;03:58:10:757;-6.7612257;3.2369606;
1;03:58:10:768;-15.247474;-2.3295584;
1;03:58:10:778;-5.9902925;1.1097125;
1;03:58:10:789;-5.6215854;-7.9331875;
1;03:58:10:799;-2.1990743;-1.292869;
1;03:58:10:809;-11.439496;2.7521348;
1;03:58:10:819;-7.7847466;-6.233304;
1;03:58:10:829;-12.765883;4.7740383;
1;03:58:10:839;-3.8283286;-4.158728;
1;03:58:10:850;-3.6032736;-1.4616601;
1;03:58:10:861;-9.446322;-0.075417355;
1;03:58:10:871;1.1133038;2.9029696;
1;03:58:10:882;-1.1228806;-0.93732995;
1;03:58:10:893;-5.069722;3.489549;
1;03:58:10:904;-10.787076;-0.6727707;
1;03:58:10:914;-22.48754;-2.5713725;
1;03:58:10:924;-14.733917;1.033098;
1;03:58:10:935;-3.2022448;-3.4344823;
1;03:58:10:945;-3.845088;-3.1783028;
1;03:58:10:956;-1.5622166;2.540248;
1;03:58:10:967;-11.827356;-5.505467;
1;03:58:10:977;-1.3371617;4.8099513;
1;03:58:10:987;-6.4392056;-1.2354081;
1;03:58:10:998;2.4037786;5.981913;
1;03:58:11:009;-18.658014;-3.83192;
1;03:58:11:019;-11.444284;0.81881696;
1;03:58:11:029;-8.942344;5.142745;
1;03:58:11:040;-12.897565;-10.474632;
1;03:58:11:051;2.2697031;-2.6479871;
1;03:58:11:061;-1.661576;3.1962593;
1;03:58:11:071;-7.937976;4.6471453;
1;03:58:11:081;-2.0494366;-1.6591818;
1;03:58:11:092;-7.6710224;-1.460463;
1;03:58:11:102;-18.335993;-3.4033577;
1;03:58:11:112;-4.3035774;1.7980455;
1;03:58:11:123;-11.830948;0.5530606;
1;03:58:11:133;1.6220716;-3.4009635;
1;03:58:11:144;-14.812926;-0.009576807;
1;03:58:11:154;2.871845;4.581305;
1;03:58:11:165;-2.0614076;-6.2704144;
1;03:58:11:175;1.5658079;-0.9828198;
1;03:58:11:186;-13.767857;6.801927;
1;03:58:11:196;1.6603789;-3.1842883;
1;03:58:11:207;-4.155137;0.037110128;
1;03:58:11:218;-14.176068;0.01316811;
1;03:58:11:228;-10.370484;3.3291376;
1;03:58:11:239;-1.9620483;-2.3104045;
1;03:58:11:249;-1.3215994;0.8403648;
1;03:58:11:259;-1.8854338;6.229713;
1;03:58:11:269;-1.483208;0.4141969;
1;03:58:11:279;0.8523358;0.91937345;
1;03:58:11:289;-5.409699;-3.7612908;
1;03:58:11:300;-1.6328455;0.6584055;
1;03:58:11:310;-7.5094137;-1.1145009;
1;03:58:11:320;1.5346833;4.701015;
1;03:58:11:331;-2.006341;3.4680011;
1;03:58:11:342;-7.20535;1.2797008;
1;03:58:11:351;8.663419;2.707842;
1;03:58:11:361;2.4037786;4.7548847;
1;03:58:11:372;-3.0789435;-0.092176765;
1;03:58:11:383;0.29807812;3.5003228;
1;03:58:11:393;-3.7696705;-7.9942393;
1;03:58:11:404;-7.5405383;-4.5298295;
1;03:58:11:414;9.82341;2.1212628;
1;03:58:11:424;-11.159374;-0.9720459;
1;03:58:11:435;-6.1566896;0.21787235;
1;03:58:11:444;-0.6859388;-2.1535845;
1;03:58:11:454;5.2061915;3.9707835;
1;03:58:11:464;7.074866;1.3862427;
1;03:58:11:474;3.4237084;6.6307416;
1;03:58:11:484;1.1432313;-1.2665327;
1;03:58:11:495;11.3138;5.6922145;
1;03:58:11:506;-0.93014735;0.82719666;
1;03:58:11:516;-4.757279;-2.2589293;
1;03:58:11:527;4.248511;-2.861071;
1;03:58:11:538;2.2014685;-1.5035586;
1;03:58:11:549;-1.6687586;2.087744;
1;03:58:11:559;-2.48159;6.206968;
1;03:58:11:570;1.7345991;2.6192567;
1;03:58:11:581;0.37349546;8.72088;
1;03:58:11:591;3.608062;5.056554;
1;03:58:11:602;2.7509377;4.844667;
1;03:58:11:613;-0.31364042;0.62249243;
1;03:58:11:624;-0.7098808;1.3371617;
1;03:58:11:634;-6.4140663;3.903746;
1;03:58:11:643;1.7597382;5.469554;
1;03:58:11:653;-11.166556;-1.2294226;
1;03:58:11:664;7.03177;6.803124;
1;03:58:11:674;-3.4715924;-3.1986535;
1;03:58:11:684;-1.9405005;12.580333;
1;03:58:11:695;1.0127473;5.6407394;
1;03:58:11:705;-4.5082817;5.849035;
1;03:58:11:715;3.6415808;3.453636;
1;03:58:11:725;2.135628;-3.394978;
1;03:58:11:735;-1.5897499;2.0805612;
1;03:58:11:746;2.2002714;2.8981812;
1;03:58:11:756;-1.5717934;9.67018;
1;03:58:11:766;0.45489833;2.719813;
1;03:58:11:776;-3.3758245;2.4708161;
1;03:58:11:787;4.8159366;10.224439;
1;03:58:11:798;-1.2964603;-6.8402343;
1;03:58:11:808;0.16280572;4.903325;
1;03:58:11:819;-3.4033577;6.206968;
1;03:58:11:829;-4.3885717;3.7672763;
1;03:58:11:839;3.2441432;5.1463366;
1;03:58:11:850;0.25498247;2.2098482;
1;03:58:11:861;-2.0721815;0.022744916;
1;03:58:11:871;4.950012;3.3865983;
1;03:58:11:882;-0.79846627;3.345897;
1;03:58:11:893;0.48123455;4.368221;
1;03:58:11:903;-1.115698;4.449624;
1;03:58:11:914;-3.4955344;-4.751293;
1;03:58:11:924;-2.871845;0.6392518;
1;03:58:11:935;5.720945;0.21547815;
1;03:58:11:945;-2.8299465;0.6775591;
1;03:58:11:956;5.1571107;2.3355439;
1;03:58:11:965;-3.7804444;9.617508;
1;03:58:11:975;-3.9252937;-0.7386112;
1;03:58:11:985;-0.3842694;5.505467;
1;03:58:11:996;4.0019083;1.99437;
1;03:58:12:006;4.235343;-4.0186677;
1;03:58:12:016;-2.042254;-6.4308257;
1;03:58:12:027;-1.8028339;-0.50158525;
1;03:58:12:038;-1.2629414;-0.545878;
1;03:58:12:049;-13.5775175;0.9900024;
1;03:58:12:060;-2.9855695;-1.8495208;
1;03:58:12:070;2.7569232;11.379641;
1;03:58:12:081;5.6790466;3.1962593;
1;03:58:12:091;-9.928755;3.4476504;
1;03:58:12:101;0.93014735;5.8442464;
1;03:58:12:112;-1.9249382;-6.7348895;
1;03:58:12:122;-2.493561;5.374983;
1;03:58:12:133;-8.173804;-1.5011644;
1;03:58:12:144;1.6651673;0.40821138;
1;03:58:12:153;-0.33877954;3.5075054;
1;03:58:12:164;0.3890578;1.7585411;
1;03:58:12:174;-3.9576154;4.9919105;
1;03:58:12:185;1.0187328;5.659893;
1;03:58:12:195;10.247183;1.5478514;
1;03:58:12:206;-1.6651673;-4.9823337;
1;03:58:12:216;-0.21308395;0.30765492;
1;03:58:12:226;-4.4903255;0.07182605;
1;03:58:12:237;7.1466923;4.474763;
1;03:58:12:248;3.4009635;3.942053;
1;03:58:12:259;-1.851915;-1.6699557;
1;03:58:12:269;0.45250413;-1.4927847;
1;03:58:12:280;-11.692084;0.41180268;
1;03:58:12:291;-2.160767;3.5625722;
1;03:58:12:302;-3.4153287;2.0278888;
1;03:58:12:313;0.029927522;5.6335564;
1;03:58:12:323;-0.45370123;-3.539827;
1;03:58:12:334;-2.6503813;-2.3630772;
1;03:58:12:344;-7.603985;2.4480712;
1;03:58:12:355;1.4879963;8.257602;
1;03:58:12:365;9.423578;-0.9552865;
1;03:58:12:375;-15.190013;0.59735334;
1;03:58:12:386;9.6845455;3.2106245;
1;03:58:12:396;-5.6335564;0.22744916;
1;03:58:12:407;6.2285156;-1.2138603;
1;03:58:12:418;-5.947197;4.5621514;
1;03:58:12:429;-4.8506527;1.0522517;
1;03:58:12:439;5.681441;1.8722657;
1;03:58:12:450;-0.5770026;1.3024458;
1;03:58:12:460;3.6152446;-1.2761095;
1;03:58:12:471;-1.1372458;-0.9720459;
1;03:58:12:481;3.606865;-1.6555905;
1;03:58:12:492;-9.068039;5.377377;
1;03:58:12:502;-0.8690952;-1.0007763;
1;03:58:12:512;-0.8690952;-1.0007763;
1;03:58:12:522;-2.7928362;-1.5035586;
1;03:58:12:532;5.0745106;3.3554738;
1;03:58:12:542;3.0490158;3.6355953;
1;03:58:12:553;4.856638;-1.3814543;
1;03:58:12:563;-7.1909847;0.30406362;
1;03:58:12:573;-0.80804306;-1.2449849;
1;03:58:12:583;5.471948;-3.406949;
1;03:58:12:594;6.4882865;-0.6991069;
1;03:58:12:604;-3.2429461;3.9396589;
1;03:58:12:620;-7.747637;2.2577322;
1;03:58:12:630;6.301539;-2.743755;
1;03:58:12:640;0.7637503;-2.3666685;
1;03:58:12:651;-2.778471;4.9524064;
1;03:58:12:661;-2.1799207;1.435324;
1;03:58:12:672;-2.9161377;-0.33758244;
1;03:58:12:682;2.0398598;2.7760768;
1;03:58:12:692;-2.243367;-3.6523547;
1;03:58:12:703;-0.5614403;-2.906561;
1;03:58:12:714;2.3211784;1.9057846;
1;03:58:12:724;1.4389153;-5.8262897;
1;03:58:12:734;5.3941364;1.3383588;
1;03:58:12:745;1.3670892;-0.7314286;
1;03:58:12:754;-2.1212628;-0.23104046;
1;03:58:12:764;1.471237;2.9616275;
1;03:58:12:775;2.4552538;1.508347;
1;03:58:12:785;7.345411;2.5103204;
1;03:58:12:796;6.1064115;2.2290018;
1;03:58:12:806;-4.734534;-0.29209262;
1;03:58:12:817;-7.2807674;-2.468422;
1;03:58:12:828;3.8067808;-4.408922;
1;03:58:12:838;7.2268977;-4.1946416;
1;03:58:12:848;11.014524;-0.21667525;
1;03:58:12:858;-0.45848963;-1.6783354;
1;03:58:12:869;7.1395097;5.1080294;
1;03:58:12:880;-0.90859956;0.89423436;
1;03:58:12:889;1.5753847;4.143166;
1;03:58:12:899;9.640253;-0.6967127;
1;03:58:12:909;-4.486734;-2.6168625;
1;03:58:12:919;2.2290018;-6.23091;
1;03:58:12:930;-2.6791117;-6.919243;
1;03:58:12:940;8.9124155;-0.46088383;
1;03:58:12:951;5.2157683;1.6220716;
1;03:58:12:961;-5.318719;1.7549498;
1;03:58:12:972;-0.15083471;3.7110126;
1;03:58:12:982;6.884527;5.3019595;
1;03:58:12:992;-1.5622166;0.8475474;
1;03:58:13:003;6.0262055;6.181829;
1;03:58:13:013;0.8523358;-2.1619642;
1;03:58:13:024;-0.055066638;-1.009156;
1;03:58:13:034;0.08379706;-5.816713;
1;03:58:13:045;3.1483753;0.33159694;
1;03:58:13:056;-1.4652514;-3.028665;
1;03:58:13:066;-0.6655881;1.0127473;
1;03:58:13:077;0.8499416;-3.9193082;
1;03:58:13:089;7.3083005;-0.18674773;
1;03:58:13:099;-3.0945058;-7.1167645;
1;03:58:13:110;4.1802764;1.7657237;
1;03:58:13:122;2.4157495;-3.7792473;
1;03:58:13:131;-4.662708;-1.5897499;
1;03:58:13:142;-9.212888;5.291186;
1;03:58:13:152;6.5098343;17.235859;
1;03:58:13:163;14.446613;0.010773907;
1;03:58:13:173;-5.8143187;4.519056;
1;03:58:13:184;-8.027759;-7.026982;
1;03:58:13:194;9.126697;-1.8387469;
1;03:58:13:204;-2.2816741;-2.1057005;
1;03:58:13:215;3.7553053;-2.8993783;
1;03:58:13:226;-1.9093759;-3.1783028;
1;03:58:13:236;-1.8950106;1.2868834;
1;03:58:13:247;-2.088941;3.3686419;
1;03:58:13:257;2.6443958;0.700304;
1;03:58:13:268;-1.8375498;-1.4784195;
1;03:58:13:278;0.7793127;-3.881001;
1;03:58:13:289;0.58777654;-0.89662856;
1;03:58:13:299;1.8531121;2.5821466;
1;03:58:13:309;-3.9145198;1.0965444;
1;03:58:13:319;2.2373815;2.4145525;
1;03:58:13:330;3.8845923;-2.705448;
1;03:58:13:340;12.246342;-1.0307038;
1;03:58:13:350;-6.9407907;-8.661025;
1;03:58:13:360;-4.0904937;0.94211835;
1;03:58:13:371;2.992752;0.8690952;
1;03:58:13:381;-2.5701754;-3.144784;
1;03:58:13:392;6.167464;10.183737;
1;03:58:13:402;1.2306197;3.084929;
1;03:58:13:413;0.0011971008;4.333505;
1;03:58:13:423;7.383718;-0.08379706;
1;03:58:13:434;3.728969;-4.283227;
1;03:58:13:446;2.942474;-3.78643;
1;03:58:13:457;3.7684734;-5.592855;
1;03:58:13:468;3.870227;3.7313633;
1;03:58:13:478;12.520478;3.1376014;
1;03:58:13:488;-0.37229836;-1.9668367;
1;03:58:13:499;4.525041;9.178172;
1;03:58:13:509;-3.7840357;-1.9141643;
1;03:58:13:519;14.562732;0.688333;
1;03:58:13:530;0.60812724;0.4357447;
1;03:58:13:540;0.8439561;-1.3934253;
1;03:58:13:551;-3.7457285;-3.6727054;
1;03:58:13:562;9.882068;-2.207454;
1;03:58:13:573;11.0935335;4.1132383;
1;03:58:13:583;6.015432;-2.5737667;
1;03:58:13:594;2.7329812;-1.0737995;
1;03:58:13:604;3.8726213;2.2062569;
1;03:58:13:614;3.3997664;-3.775656;
1;03:58:13:625;1.6136919;-4.132392;
1;03:58:13:635;5.708974;3.774459;
1;03:58:13:646;1.0055647;-0.038307227;
1;03:58:13:656;-4.7309427;-10.424355;
1;03:58:13:666;5.9184666;0.92416185;
1;03:58:13:677;-4.6830587;-1.7477672;
1;03:58:13:688;2.1021092;-0.9828198;
1;03:58:13:698;-15.460558;-7.6829934;
1;03:58:13:708;-17.31726;-2.2110453;
1;03:58:13:718;-2.4193408;-0.760159;
1;03:58:13:728;-12.800599;-4.5082817;
1;03:58:13:738;-11.269507;-1.6089035;
1;03:58:13:748;-2.657564;-4.92607;
1;03:58:13:759;-12.980165;-1.2449849;
1;03:58:13:769;-8.194156;-7.2939353;
1;03:58:13:781;-6.5361705;-4.721366;
1;03:58:13:791;-8.010999;-7.9834657;
1;03:58:13:801;9.672575;3.441665;
1;03:58:13:811;-11.370064;-10.028113;
1;03:58:13:821;-10.420763;6.4763155;
1;03:58:13:831;-18.97764;-5.141548;
1;03:58:13:842;-4.197036;2.9616275;
1;03:58:13:852;-10.901998;-1.0366893;
1;03:58:13:862;-16.044743;-1.6400281;
1;03:58:13:872;-6.505046;-1.1575965;
1;03:58:13:883;-11.860875;3.9827545;
1;03:58:13:893;-11.086351;-0.6703765;
1;03:58:13:904;6.447585;-1.0773908;
1;03:58:13:915;-11.076775;-0.50278234;
1;03:58:13:926;-22.518663;-8.163031;
1;03:58:13:937;-2.1092918;-0.25857377;
1;03:58:13:948;-6.625953;9.123106;
1;03:58:13:959;2.2026656;-11.049241;
1;03:58:13:970;-13.831304;2.385822;
1;03:58:13:980;-20.454863;-2.7126305;
1;03:58:13:990;-22.64436;-6.671443;
1;03:58:14:000;-3.6092591;-7.183802;
1;03:58:14:010;-3.7481227;-0.7398083;
1;03:58:14:020;-17.960104;-12.113463;
1;03:58:14:030;-7.651869;-0.49799395;
1;03:58:14:041;-9.713276;-5.0254292;
1;03:58:14:052;-21.520283;-3.276465;
1;03:58:14:063;-1.0714053;-0.93852705;
1;03:58:14:074;7.979874;1.6124948;
1;03:58:14:085;-5.0362034;-1.4688427;
1;03:58:14:095;-7.339425;0.8583213;
1;03:58:14:105;-10.503363;-0.08738836;
1;03:58:14:115;-2.4947581;0.9983821;
1;03:58:14:125;-8.317456;-4.7524905;
1;03:58:14:135;-11.232397;-3.028665;
1;03:58:14:145;0.60932434;2.9592333;
1;03:58:14:155;-9.822212;-1.6041151;
1;03:58:14:165;-10.758346;-3.8905778;
1;03:58:14:175;-24.730906;-4.722563;
1;03:58:14:186;4.643554;3.441665;
1;03:58:14:196;-13.733141;-2.0566192;
1;03:58:14:207;-4.461595;-1.1025299;
1;03:58:14:217;0.7110779;3.7948096;
1;03:58:14:227;-9.94312;4.3119574;
1;03:58:14:237;3.7086184;-0.557849;
1;03:58:14:247;11.145009;12.245145;
1;03:58:14:258;-30.210037;2.3020248;
1;03:58:14:269;-0.6679823;-3.2944214;
1;03:58:14:279;-11.329363;12.148179;
1;03:58:14:289;-13.540408;-1.270124;
1;03:58:14:299;0.038307227;8.887277;
1;03:58:14:309;-22.488737;-0.2885013;
1;03:58:14:320;-2.542642;3.9097314;
1;03:58:14:331;-19.978416;-0.81043726;
1;03:58:14:340;-15.3767605;-1.8064252;
1;03:58:14:350;-5.533;3.040636;
1;03:58:14:360;3.6727054;9.576807;
1;03:58:14:370;0.46208093;3.441665;
1;03:58:14:380;-0.077811554;4.5501804;
1;03:58:14:391;-9.321824;6.317101;
1;03:58:14:402;2.1200657;0.3890578;
1;03:58:14:413;-13.071144;-1.079785;
1;03:58:14:422;-10.19092;-5.591658;
1;03:58:14:432;3.2441432;12.8832;
1;03:58:14:442;-2.883816;4.0653543;
1;03:58:14:452;4.832696;0.6596026;
1;03:58:14:462;-0.11492168;-5.663484;
1;03:58:14:473;1.3036429;1.982399;
1;03:58:14:484;-0.6332663;4.256891;
1;03:58:14:495;4.06296;1.8267759;
1;03:58:14:505;2.9939492;2.4408886;
1;03:58:14:515;-4.6950297;4.9176903;
1;03:58:14:525;-6.491878;4.3179426;
1;03:58:14:535;2.5677812;-1.5119383;
1;03:58:14:545;-6.793547;0.6619968;
1;03:58:14:555;-6.2728086;-1.9297266;
1;03:58:14:565;8.991425;1.9381063;
1;03:58:14:575;5.4049106;-4.027047;
1;03:58:14:585;-6.3422403;8.513782;
1;03:58:14:595;0.51834464;1.9919758;
1;03:58:14:606;-2.6743233;5.795165;
1;03:58:14:616;-8.844181;-2.2649148;
1;03:58:14:626;6.933608;3.0777464;
1;03:58:14:636;4.277241;-4.9655743;
1;03:58:14:646;1.9416976;-0.6859388;
1;03:58:14:656;-0.8559271;1.567005;
1;03:58:14:667;-1.5753847;5.5006785;
1;03:58:14:678;3.952827;4.2042184;
1;03:58:14:688;5.4324436;4.092888;
1;03:58:14:697;2.079364;2.0829554;
1;03:58:14:707;7.503428;4.3263226;
1;03:58:14:718;-7.1466923;-6.4966664;
1;03:58:14:729;6.8127007;0.5674258;
1;03:58:14:738;-5.781997;-1.8770541;
1;03:58:14:756;-4.083311;6.215348;
1;03:58:14:766;-0.01436521;-4.0677485;
1;03:58:14:776;7.442376;4.248511;
1;03:58:14:786;11.331757;0.34715924;
1;03:58:14:796;2.7509377;1.2617443;
1;03:58:14:807;-0.7721301;5.7879825;
1;03:58:14:816;-0.7326257;-1.2976574;
1;03:58:14:827;5.0721164;1.6484078;
1;03:58:14:837;0.32920274;-3.0933087;
1;03:58:14:848;3.0023289;3.1399956;
1;03:58:14:858;2.2529438;0.14963761;
1;03:58:14:868;-2.2026656;0.093373865;
1;03:58:14:879;9.115923;3.359065;
1;03:58:14:889;-0.33399114;0.4225766;
1;03:58:14:899;-4.35625;-3.086126;
1;03:58:14:909;4.8961425;6.1183825;
1;03:58:14:919;0.5267244;-0.9756372;
1;03:58:14:930;-0.8750807;-0.8774749;
1;03:58:14:940;3.0609868;0.008379706;
1;03:58:14:950;-0.034715924;-5.485116;
1;03:58:14:960;-1.8962077;2.7856536;
1;03:58:14:970;-6.564901;-3.7253778;
1;03:58:14:980;3.1555579;8.833407;
1;03:58:14:990;3.454833;0.8655039;
1;03:58:15:001;1.2018893;5.103241;
1;03:58:15:012;9.895236;-0.36391866;
1;03:58:15:023;-5.3474493;-5.3857565;
1;03:58:15:034;3.1998506;-3.027468;
1;03:58:15:045;-12.931084;-0.5446809;
1;03:58:15:055;-1.0666169;2.5187001;
1;03:58:15:065;4.349067;7.3059063;
1;03:58:15:075;11.69807;1.401805;
1;03:58:15:085;1.5107412;7.8505874;
1;03:58:15:095;2.8550856;-0.39743748;
1;03:58:15:105;3.2848446;3.5625722;
1;03:58:15:116;-5.650316;-4.6220064;
1;03:58:15:127;-2.5893292;-2.328361;
1;03:58:15:138;-5.639542;-4.6136265;
1;03:58:15:150;-0.90261406;-3.217807;
1;03:58:15:160;1.6531962;6.6415157;
1;03:58:15:170;10.760739;10.198102;
1;03:58:15:181;4.9583917;2.2254105;
1;03:58:15:191;1.6795325;-4.2556934;
1;03:58:15:201;1.958457;0.22744916;
1;03:58:15:212;-7.1466923;-2.256535;
1;03:58:15:222;-8.009802;5.5377884;
1;03:58:15:233;4.795586;2.669535;
1;03:58:15:243;13.227964;1.79206;
1;03:58:15:253;-4.4544125;-5.410896;
1;03:58:15:263;1.8590976;7.171831;
1;03:58:15:273;-5.851429;-7.98586;
1;03:58:15:283;0.7589619;6.4978633;
1;03:58:15:293;5.032612;-0.8571242;
1;03:58:15:303;-2.0027497;3.53863;
1;03:58:15:313;-7.7799582;3.064578;
1;03:58:15:323;0.4249708;5.031415;
1;03:58:15:333;-7.788338;4.331111;
1;03:58:15:344;15.8304615;-2.9831753;
1;03:58:15:354;-10.78947;-7.523779;
1;03:58:15:365;1.5957354;-8.706514;
1;03:58:15:375;-9.165004;0.2705448;
1;03:58:15:385;11.638214;-2.8048072;
1;03:58:15:396;-6.303933;6.05733;
1;03:58:15:407;6.8761473;8.018182;
1;03:58:15:417;-4.711789;0.5793968;
1;03:58:15:427;-3.0657754;5.6323595;
1;03:58:15:437;-10.971429;0.29568392;
1;03:58:15:448;-6.7708025;2.3750482;
1;03:58:15:459;-1.3838485;-4.0078936;
1;03:58:15:470;8.234857;-1.2497733;
1;03:58:15:479;-2.5629928;-4.6459484;
1;03:58:15:489;-0.7110779;0.6512229;
1;03:58:15:499;-10.235212;2.0925324;
1;03:58:15:509;-1.7597382;5.5389857;
1;03:58:15:520;-3.1651347;-1.6879122;
1;03:58:15:531;2.9041667;6.003461;
1;03:58:15:542;4.289212;1.9536686;
1;03:58:15:553;-2.4959552;-7.0545154;
1;03:58:15:564;-5.0984526;-3.1196449;
1;03:58:15:574;2.207454;4.0880995;
1;03:58:15:584;-4.9416323;-0.23582886;
1;03:58:15:594;6.169858;4.3287168;
1;03:58:15:604;4.844667;-5.116409;
1;03:58:15:614;-1.553837;-3.2070332;
1;03:58:15:624;-0.70509243;0.7697359;
1;03:58:15:635;11.596316;-5.8502316;
1;03:58:15:645;0.6344634;-2.2026656;
1;03:58:15:656;5.9029045;-3.855862;
1;03:58:15:667;6.2943563;1.2054806;
1;03:58:15:684;1.316811;-2.5210943;
1;03:58:15:695;8.543709;-2.6839;
1;03:58:15:706;-5.177461;4.4484267;
1;03:58:15:717;-10.1382475;3.3375173;
1;03:58:15:728;-17.961302;-8.584411;
1;03:58:15:737;1.9524715;-4.0282445;
1;03:58:15:747;7.2747817;-3.2381577;
1;03:58:15:757;-7.9726915;-6.7444663;
1;03:58:15:767;6.793547;-1.9524715;
1;03:58:15:777;-0.9636662;13.784616;
1;03:58:15:787;-4.5896845;-1.8507179;
1;03:58:15:797;-4.865018;1.1408371;
1;03:58:15:807;1.3132197;2.7820623;
1;03:58:15:817;7.854179;6.075287;
1;03:58:15:827;-12.5504055;-10.0029745;
1;03:58:15:837;1.4101849;-1.7022774;
1;03:58:15:847;0.6799533;3.2668881;
1;03:58:15:857;-5.390545;-0.7254431;
1;03:58:15:867;2.7042508;2.7688942;
1;03:58:15:877;-4.4663835;-2.9987376;
1;03:58:15:887;11.923124;3.3159695;
1;03:58:15:897;-13.770251;-4.7907977;
1;03:58:15:907;1.2078748;1.2904748;
1;03:58:15:917;-5.995081;-0.7206547;
1;03:58:15:927;-4.594473;0.6823475;
1;03:58:15:938;-2.0135236;-2.566584;
1;03:58:15:947;1.7322049;-2.8299465;
1;03:58:15:957;7.49026;2.9783869;
1;03:58:15:967;1.7369933;-5.6084175;
1;03:58:15:977;-8.803479;-6.1303535;
1;03:58:15:987;-7.0928226;-4.3981485;
1;03:58:15:997;-14.8272915;1.0019734;
1;03:58:16:007;8.826224;3.8774097;
1;03:58:16:018;7.2699933;8.677784;
1;03:58:16:027;7.565677;-7.189788;
1;03:58:16:037;-20.193893;0.2645593;
1;03:58:16:047;-24.225729;8.350976;
1;03:58:16:057;-6.5565214;-1.0235212;
1;03:58:16:068;16.359581;-0.8810662;
1;03:58:16:079;15.286978;2.1823149;
1;03:58:16:090;-8.293514;6.811504;
1;03:58:16:100;-11.380837;2.670732;
1;03:58:16:111;1.9752164;0.6380547;
1;03:58:16:121;8.273164;2.3834279;
1;03:58:16:131;13.468581;-3.9372647;
1;03:58:16:142;-5.5629277;-4.497508;
1;03:58:16:152;-13.521255;-8.730456;
1;03:58:16:163;21.20305;4.1742907;
1;03:58:16:173;15.557523;0.93972415;
1;03:58:16:184;-2.8443117;-3.606865;
1;03:58:16:193;-4.9428296;11.040861;
1;03:58:16:203;-23.15193;-9.973047;
1;03:58:16:213;-5.3761797;-1.7238252;
1;03:58:16:223;12.203246;0.25019407;
1;03:58:16:233;16.114174;-7.121553;
1;03:58:16:243;-6.4284315;-9.866506;
1;03:58:16:253;7.37055;-12.435484;
1;03:58:16:263;11.225215;-4.3526587;
1;03:58:16:273;-23.945608;0.65242;
1;03:58:16:283;14.930242;23.493105;
1;03:58:16:293;2.5198972;-4.4819455;
1;03:58:16:304;-0.37708676;15.303738;
1;03:58:16:315;-9.713276;0.93493575;
1;03:58:16:326;12.385205;8.577228;
1;03:58:16:337;-8.577228;7.908048;
1;03:58:16:348;-11.481394;-2.3475149;
1;03:58:16:359;-8.212111;4.3406878;
1;03:58:16:370;-10.0664215;-4.9440265;
1;03:58:16:381;6.9407907;4.5621514;
1;03:58:16:391;-9.0429;-8.537724;
1;03:58:16:400;0.51954174;0.35314476;
1;03:58:16:410;-2.244564;-2.055422;
1;03:58:16:420;-4.35625;3.1854854;
1;03:58:16:430;-0.36032736;0.17238252;
1;03:58:16:440;-0.32680854;-0.17238252;
1;03:58:16:450;6.0968347;-0.08619126;
1;03:58:16:460;-2.2146366;-6.319495;
1;03:58:16:470;-0.51834464;-5.3965306;
1;03:58:16:481;-11.145009;-1.0618285;
1;03:58:16:492;-4.286818;0.5351041;
1;03:58:16:503;-0.7206547;3.6008794;
1;03:58:16:514;-1.614889;-0.7697359;
1;03:58:16:525;2.3666685;-1.4760253;
1;03:58:16:534;2.6767175;1.3754689;
1;03:58:16:544;-10.730812;-2.4624364;
1;03:58:16:554;-7.145495;-1.4173675;
1;03:58:16:564;-15.09185;-9.445126;
1;03:58:16:574;-6.4607534;-1.5059528;
1;03:58:16:584;-3.1411927;-5.657499;
1;03:58:16:595;-6.5589156;-8.4826565;
1;03:58:16:606;-6.227319;-2.9592333;
1;03:58:16:617;7.4028716;8.445546;
1;03:58:16:628;0.15203181;-4.368221;
1;03:58:16:638;-15.412673;-0.8607155;
1;03:58:16:649;-11.918336;-4.1000705;
1;03:58:16:660;-14.628572;-4.948815;
1;03:58:16:671;-5.0601454;-2.3008277;
1;03:58:16:682;4.5872903;-4.578911;
1;03:58:16:693;-6.349423;-6.728904;
1;03:58:16:704;-19.706675;-7.656657;
1;03:58:16:715;-22.151154;-14.979323;
1;03:58:16:725;-4.6926355;5.531803;
1;03:58:16:736;-6.1758432;-2.4480712;
1;03:58:16:746;-1.0259154;-4.5537715;
1;03:58:16:756;0.17118542;2.0362685;
1;03:58:16:767;-14.469358;-1.0486604;
1;03:58:16:777;-4.9428296;-7.836222;
1;03:58:16:787;11.232397;1.6519991;
1;03:58:16:797;-20.1089;3.0071173;
1;03:58:16:807;-7.65546;-3.9444473;
1;03:58:16:817;-6.343437;-3.277662;
1;03:58:16:827;-11.872847;-0.007182605;
1;03:58:16:837;-11.098322;1.174356;
1;03:58:16:847;9.79827;-7.0425444;
1;03:58:16:857;1.6280571;6.9264255;
1;03:58:16:867;-7.4627266;-1.5478514;
1;03:58:16:877;-10.34774;-7.2568254;
1;03:58:16:887;-14.348451;-4.173094;
1;03:58:16:897;-15.321693;-10.757148;
1;03:58:16:907;-0.10414778;-11.136629;
1;03:58:16:917;-8.425196;-16.027983;
1;03:58:16:928;-3.9193082;4.4460325;
1;03:58:16:939;-23.171083;-13.668497;
1;03:58:16:950;-17.999609;7.9942393;
1;03:58:16:961;-6.9647326;-7.429208;
1;03:58:16:971;-13.682862;8.255207;
1;03:58:16:980;-2.9496565;-3.6260185;
1;03:58:16:990;-7.351396;1.9440918;
1;03:58:17:000;-22.771252;-1.1647792;
1;03:58:17:010;-7.6853876;-0.35913026;
1;03:58:17:021;-12.628217;-5.3366756;
1;03:58:17:030;-8.255207;-2.360683;
1;03:58:17:040;-11.463438;7.6973586;
1;03:58:17:050;-2.5450363;1.5179238;
1;03:58:17:061;-4.7668557;-0.30286652;
1;03:58:17:071;-5.149928;6.647501;
1;03:58:17:081;6.1902084;1.3024458;
1;03:58:17:092;1.0965444;0.2705448;
1;03:58:17:101;16.31409;0.6596026;
1;03:58:17:112;-16.74744;-12.070368;
1;03:58:17:122;12.210428;1.62686;
1;03:58:17:132;-11.494562;-13.624205;
1;03:58:17:143;3.4165258;3.3159695;
1;03:58:17:153;-14.633361;-1.2593501;
1;03:58:17:163;-16.77617;-3.0298622;
1;03:58:17:174;-16.135723;7.6722193;
1;03:58:17:185;-0.8487445;3.4799721;
1;03:58:17:195;1.364695;10.576386;
1;03:58:17:205;-1.246182;5.1080294;
1;03:58:17:215;-5.3342814;9.746795;
1;03:58:17:225;-4.2281604;9.938332;
1;03:58:17:235;-4.626795;2.8431146;
1;03:58:17:245;0.48243165;13.190854;
1;03:58:17:255;-4.38498;9.211691;
1;03:58:17:265;-3.7816415;4.915296;
1;03:58:17:275;-5.159505;4.5801077;
1;03:58:17:285;2.6635494;7.867347;
1;03:58:17:295;-1.70946;7.0485296;
1;03:58:17:305;2.1859062;6.501455;
1;03:58:17:315;8.696938;1.1097125;
1;03:58:17:326;4.7668557;-3.74094;
1;03:58:17:336;6.7492547;-3.4452562;
1;03:58:17:347;-7.2807674;-2.6312277;
1;03:58:17:358;-1.127669;-0.20590134;
1;03:58:17:369;-4.1240125;7.589619;
1;03:58:17:380;0.25498247;3.9552212;
1;03:58:17:390;3.1627405;5.7664347;
1;03:58:17:401;3.8259344;2.1906946;
1;03:58:17:410;-8.532935;5.876568;
1;03:58:17:420;3.5757403;4.583699;
1;03:58:17:430;0.6368576;-5.5282116;
1;03:58:17:440;-6.355408;0.34955344;
1;03:58:17:450;-9.672575;-2.7928362;
1;03:58:17:460;-3.2465374;-2.4121583;
1;03:58:17:470;11.56998;8.75799;
1;03:58:17:480;-5.5964465;1.4688427;
1;03:58:17:490;2.267309;8.002619;
1;03:58:17:501;-13.0998745;3.3279405;
1;03:58:17:512;6.554127;3.489549;
1;03:58:17:523;-4.5561657;-2.64679;
1;03:58:17:534;-1.9500773;4.19943;
1;03:58:17:545;-1.1971009;3.892972;
1;03:58:17:555;0.40342298;3.156755;
1;03:58:17:565;12.676101;4.1503487;
1;03:58:17:576;-7.539341;1.4293385;
1;03:58:17:586;6.169858;-0.32441434;
1;03:58:17:596;-16.500837;-3.1998506;
1;03:58:17:607;-5.4504004;-0.79607207;
1;03:58:17:617;4.7800236;4.3777976;
1;03:58:17:627;-1.4161704;0.09696517;
1;03:58:17:637;5.5521536;4.96318;
1;03:58:17:647;-4.0043025;4.43885;
1;03:58:17:658;2.5713725;0.6536171;
1;03:58:17:668;-1.4317327;-1.0115502;
1;03:58:17:679;3.1196449;-1.9393034;
1;03:58:17:690;-6.740875;-3.8750155;
1;03:58:17:700;4.712986;-2.36188;
1;03:58:17:710;4.4125137;0.09816227;
1;03:58:17:720;3.1483753;-0.0035913025;
1;03:58:17:731;-0.24660277;1.5693992;
1;03:58:17:742;8.196549;2.8502972;
1;03:58:17:753;-1.0929531;0.9911995;
1;03:58:17:764;1.0869676;1.5717934;
1;03:58:17:775;-0.58538234;-2.8790276;
1;03:58:17:786;3.857059;-3.4500446;
1;03:58:17:797;6.8569937;-3.70383;
1;03:58:17:808;-1.400608;1.9057846;
1;03:58:17:819;5.9531827;5.711368;
1;03:58:17:830;0.108936176;-4.832696;
1;03:58:17:841;3.204639;-1.3491327;
1;03:58:17:852;1.4030021;1.5191209;
1;03:58:17:863;1.4185646;-0.62488663;
1;03:58:17:874;7.7847466;-1.7082629;
1;03:58:17:884;0.50278234;3.064578;
1;03:58:17:894;9.362526;-0.6943185;
1;03:58:17:904;4.185065;0.33518824;
1;03:58:17:914;-3.6008794;0.19871874;
1;03:58:17:925;-2.0590134;-3.9576154;
1;03:58:17:934;2.8766334;-1.650802;
1;03:58:17:945;-3.8115692;1.2892777;
1;03:58:17:955;3.5434184;0.8463503;
1;03:58:17:966;-2.7736826;4.0054994;
1;03:58:17:977;-8.978256;0.93014735;
1;03:58:17:986;2.5821466;-0.6572084;
1;03:58:17:996;-1.2162545;-1.1049241;
1;03:58:18:006;-2.779668;-3.2321723;
1;03:58:18:017;3.228581;0.061052144;
1;03:58:18:026;1.0235212;2.0733786;
1;03:58:18:036;3.930082;0.6727707;
1;03:58:18:046;-0.81522566;0.073023155;
1;03:58:18:057;8.748413;-2.3008277;
1;03:58:18:068;-1.6831238;-6.543353;
1;03:58:18:077;2.3870192;0.2657564;
1;03:58:18:087;-1.1456255;-0.03232172;
1;03:58:18:097;-2.0817583;-5.770026;
1;03:58:18:107;9.258378;-3.465607;
1;03:58:18:117;6.3542113;4.268862;
1;03:58:18:127;9.496601;-1.4389153;
1;03:58:18:137;-0.59974754;-0.1364695;
1;03:58:18:147;-10.506954;-2.0003555;
1;03:58:18:157;7.4256167;-0.51475334;
1;03:58:18:167;-2.2816741;-4.1000705;
1;03:58:18:177;-3.0657754;2.1763294;
1;03:58:18:187;13.078327;6.4020953;
1;03:58:18:197;-1.6220716;-3.7924154;
1;03:58:18:207;0.34117374;3.8510735;
1;03:58:18:217;-4.259285;-1.9524715;
1;03:58:18:227;2.6647465;0.39983168;
1;03:58:18:237;-4.2796354;0.108936176;
1;03:58:18:247;5.554548;1.9859903;
1;03:58:18:257;-0.94092125;-3.3135753;
1;03:58:18:267;-1.9309237;-2.2337902;
1;03:58:18:277;-3.2668881;-1.0283096;
1;03:58:18:287;3.098097;-2.445677;
1;03:58:18:297;-7.9451585;5.273229;
1;03:58:18:307;-0.24420857;-3.5422213;
1;03:58:18:317;-0.19632454;2.9113493;
1;03:58:18:327;-3.630807;-3.822343;
1;03:58:18:337;3.882198;-1.8926164;
1;03:58:18:347;-2.7018566;-0.5506664;
1;03:58:18:357;-3.229778;-0.7134721;
1;03:58:18:367;0.62249243;3.669114;
1;03:58:18:377;-1.0809821;-1.1947067;
1;03:58:18:388;-0.31004912;-0.33279404;
1;03:58:18:399;-2.8323407;1.0582372;
1;03:58:18:408;5.9759274;0.29688102;
1;03:58:18:419;-1.7465701;4.6902413;
1;03:58:18:429;2.8167782;-2.89459;
1;03:58:18:438;1.9931729;-3.7337575;
1;03:58:18:448;-7.715315;-3.4751837;
1;03:58:18:458;-0.61291564;2.3223755;
1;03:58:18:468;6.223727;-0.8810662;
1;03:58:18:479;-0.7098808;6.5086374;
1;03:58:18:490;1.0139444;-1.4939818;
1;03:58:18:501;-1.9572599;1.1803415;
1;03:58:18:512;1.1563994;-2.445677;
1;03:58:18:523;4.333505;4.361038;
1;03:58:18:534;3.9504328;-1.2892777;
1;03:58:18:543;3.7840357;-4.050989;
1;03:58:18:553;-2.6360161;-0.9576807;
1;03:58:18:563;-0.5422867;-2.2732944;
1;03:58:18:573;-8.221688;3.5649664;
1;03:58:18:583;-2.4863784;6.9000893;
1;03:58:18:593;0.1316811;0.20231004;
1;03:58:18:603;4.092888;-0.7793127;
1;03:58:18:613;1.316811;-2.4313118;
1;03:58:18:623;1.8567034;-3.095703;
1;03:58:18:633;4.865018;0.7194576;
1;03:58:18:644;0.39863458;0.415394;
1;03:58:18:655;2.5234885;1.0474633;
1;03:58:18:666;2.1152773;1.8004397;
1;03:58:18:677;10.807426;-1.5885528;
1;03:58:18:688;6.4643445;-5.33069;
1;03:58:18:699;-0.8750807;2.100912;
1;03:58:18:710;3.2752678;-1.5574282;
1;03:58:18:721;0.16759412;-0.85473;
1;03:58:18:732;7.144298;1.3395559;
1;03:58:18:743;2.920926;-0.24660277;
1;03:58:18:754;-2.184709;-0.7445967;
1;03:58:18:765;6.993463;-2.4648306;
1;03:58:18:776;-5.8741736;-1.6711528;
1;03:58:18:787;8.450335;3.3877954;
1;03:58:18:798;-5.342661;-2.516306;
1;03:58:18:808;-3.776853;4.999093;
1;03:58:18:819;11.161768;0.63206923;
1;03:58:18:830;6.215348;-0.20709845;
1;03:58:18:840;-1.1935096;0.6943185;
1;03:58:18:850;-3.8019924;-2.8670566;
1;03:58:18:860;-9.662998;0.36750996;
1;03:58:18:870;5.579687;1.3551182;
1;03:58:18:880;1.9847932;-0.33997664;
1;03:58:18:890;-1.638831;0.4297592;
1;03:58:18:901;-3.2465374;-0.89423436;
1;03:58:18:912;-13.618219;-2.882619;
1;03:58:18:923;-7.7081323;-1.7106571;
1;03:58:18:934;-3.7600937;-3.393781;
1;03:58:18:945;-1.4065934;3.241749;
1;03:58:18:955;0.89184016;-7.177817;
1;03:58:18:965;-8.937555;-5.710171;
1;03:58:18:976;-18.51077;-3.8271315;
1;03:58:18:986;-13.901932;8.680179;
1;03:58:18:996;-12.650962;-2.1906946;
1;03:58:19:007;-13.778631;-4.2054152;
1;03:58:19:016;-5.459977;2.0254946;
1;03:58:19:027;7.2185183;6.8306575;
2;03:58:19:037;3.821146;0.06703765;
2;03:58:19:048;-5.741296;6.384139;
2;03:58:19:059;-5.8346696;-3.728969;
2;03:58:19:069;-9.76116;5.09127;
2;03:58:19:079;-9.76116;5.09127;
2;03:58:19:089;-9.76116;5.09127;
2;03:58:19:099;-9.76116;5.09127;
2;03:58:19:110;-2.541445;2.3415294;
2;03:58:19:120;2.1021092;4.056975;
2;03:58:19:130;2.1021092;4.056975;
2;03:58:19:141;-1.3215994;2.1535845;
2;03:58:19:151;-5.9627595;-7.109582;
2;03:58:19:161;-6.0800753;5.602432;
2;03:58:19:171;-0.19153613;-1.9895816;
2;03:58:19:182;6.317101;1.9740193;
2;03:58:19:192;-4.498705;1.4784195;
2;03:58:19:202;-4.92607;1.685518;
2;03:58:19:212;-7.231686;0.7529764;
2;03:58:19:222;0.93852705;1.009156;
2;03:58:19:232;-5.934029;-0.16519992;
2;03:58:19:242;-3.1771057;2.8323407;
2;03:58:19:253;-4.606444;-3.762488;
2;03:58:19:264;-3.2609026;-3.3877954;
2;03:58:19:275;1.8016368;3.0478187;
2;03:58:19:284;-4.8698063;-3.4261026;
2;03:58:19:295;-5.9052987;4.1012673;
2;03:58:19:304;-2.3834279;3.3435028;
2;03:58:19:314;3.8774097;-1.460463;
2;03:58:19:324;1.1599907;-3.3842041;
2;03:58:19:334;-1.6950948;2.4648306;
2;03:58:19:345;-1.8327614;6.455965;
2;03:58:19:354;5.556942;-2.0757728;
2;03:58:19:364;4.629189;2.9532478;
2;03:58:19:374;1.3599066;1.5813702;
2;03:58:19:384;-1.9093759;0.019153614;
2;03:58:19:394;-8.693346;1.8052281;
2;03:58:19:404;7.429208;4.1335893;
2;03:58:19:414;13.936648;6.767211;
2;03:58:19:424;-9.564836;0.16519992;
2;03:58:19:434;-7.4495587;8.701726;
2;03:58:19:445;2.7617116;0.47884035;
2;03:58:19:455;2.2301989;-0.50637364;
2;03:58:19:465;-1.5071499;-1.3311762;
2;03:58:19:475;-6.981492;3.4979286;
2;03:58:19:485;-2.9604304;5.4204726;
2;03:58:19:496;-0.29209262;1.6089035;
2;03:58:19:506;4.663905;3.2620997;
2;03:58:19:516;0.81522566;-3.8726213;
2;03:58:19:527;1.8914193;2.5474305;
2;03:58:19:539;6.7348895;7.723695;
2;03:58:19:549;-6.6546836;-0.9708488;
2;03:58:19:560;6.477513;1.30484;
2;03:58:19:570;-7.035362;-3.5805287;
2;03:58:19:581;-2.054225;3.6942532;
2;03:58:19:591;-7.311892;3.738546;
2;03:58:19:601;3.3961751;0.4309563;
2;03:58:19:611;11.474212;1.8507179;
2;03:58:19:622;-1.4951789;0.21787235;
2;03:58:19:632;15.31092;1.9309237;
2;03:58:19:643;1.4209588;-1.186327;
2;03:58:19:653;1.9129672;3.9193082;
2;03:58:19:663;-5.5940523;6.1806316;
2;03:58:19:673;0.50996494;-3.132813;
2;03:58:19:683;1.4508862;-2.5079262;
2;03:58:19:693;5.5042696;-2.0374656;
2;03:58:19:704;-2.111686;0.0023942017;
2;03:58:19:714;3.7373488;4.8458643;
2;03:58:19:724;1.7824832;0.034715924;
2;03:58:19:734;5.3282957;-0.25977087;
2;03:58:19:745;-4.771644;-1.5562311;
2;03:58:19:756;0.16759412;-0.19393034;
2;03:58:19:767;2.8778305;-0.19273324;
2;03:58:19:777;-2.813187;-3.4620156;
2;03:58:19:787;4.235343;-2.622848;
2;03:58:19:798;1.4879963;-5.3282957;
2;03:58:19:808;-6.3781533;-2.9903579;
2;03:58:19:818;-9.880871;0.34356794;
2;03:58:19:829;-11.008539;-3.8295257;
2;03:58:19:839;-5.6706667;3.2513258;
2;03:58:19:849;0.39384618;-4.8578353;
2;03:58:19:859;-6.003461;-1.4544775;
2;03:58:19:869;4.4101195;6.303933;
2;03:58:19:879;-5.0864816;-5.01705;
2;03:58:19:890;-4.5166616;4.1706996;
2;03:58:19:901;-9.218874;-3.3961751;
2;03:58:19:911;-17.657238;-2.0709844;
2;03:58:19:921;-13.189657;2.3918076;
2;03:58:19:931;-9.555259;-8.748413;
2;03:58:19:941;-2.1811178;4.7441106;
2;03:58:19:952;7.6267295;-1.0785879;
2;03:58:19:963;-10.626664;-9.579201;
2;03:58:19:973;-6.6367273;-0.18914193;
2;03:58:19:983;-16.323668;-6.2859764;
2;03:58:19:993;-8.385692;2.5390508;
2;03:58:20:003;-13.39915;-5.898116;
2;03:58:20:013;0.89543146;-0.2765303;
2;03:58:20:024;-6.1507044;-4.6459484;
2;03:58:20:035;-8.258799;2.8514943;
2;03:58:20:045;-22.02546;7.5070195;
2;03:58:20:054;-7.8745294;-2.8407204;
2;03:58:20:064;-9.323022;0.8607155;
2;03:58:20:074;7.8039002;-3.1256304;
2;03:58:20:084;-5.345055;-8.60117;
2;03:58:20:094;-23.61042;-0.6488287;
2;03:58:20:104;-5.199009;-4.0318356;
2;03:58:20:114;-10.684125;-3.369839;
2;03:58:20:125;-4.9524064;-1.3072342;
2;03:58:20:136;-10.232818;1.6364368;
2;03:58:20:145;-4.590882;-1.9764135;
2;03:58:20:155;-17.73864;-3.276465;
2;03:58:20:166;-2.1751323;-0.8762778;
2;03:58:20:176;-7.2149267;-1.0151415;
2;03:58:20:187;-15.107412;3.4093432;
2;03:58:20:197;-4.1024647;-4.4568067;
2;03:58:20:207;-15.541961;-1.2749124;
2;03:58:20:217;-4.035427;-0.93972415;
2;03:58:20:227;-12.270284;-0.7673417;
2;03:58:20:237;-0.01316811;-1.186327;
2;03:58:20:247;-3.630807;-4.957195;
2;03:58:20:257;-13.822924;-5.5485625;
2;03:58:20:267;-8.346188;-0.32441434;
2;03:58:20:277;-5.5461683;-5.8083334;
2;03:58:20:287;-7.4495587;-0.320823;
2;03:58:20:297;-0.22744916;-2.255338;
2;03:58:20:307;-4.9559975;3.8151605;
2;03:58:20:317;-8.049306;3.1842883;
2;03:58:20:327;7.4124484;11.455058;
2;03:58:20:337;-12.190078;-2.2505496;
2;03:58:20:347;2.6324248;12.01171;
2;03:58:20:357;2.6803088;8.177396;
2;03:58:20:367;-8.969876;0.33758244;
2;03:58:20:377;2.4420857;16.916231;
2;03:58:20:387;-4.5418005;5.4049106;
2;03:58:20:397;0.5374983;15.06312;
2;03:58:20:407;-12.384008;2.9005754;
2;03:58:20:417;-9.021352;3.084929;
2;03:58:20:427;-11.135432;7.639898;
2;03:58:20:437;4.9081135;7.880515;
2;03:58:20:447;-3.9145198;9.579201;
2;03:58:20:458;-0.60932434;5.0505686;
2;03:58:20:469;-4.4125137;10.064027;
2;03:58:20:480;2.5222914;4.370615;
2;03:58:20:490;-5.839458;3.1651347;
2;03:58:20:500;-11.554418;4.3394904;
2;03:58:20:510;6.527791;7.1275387;
2;03:58:20:520;1.9919758;7.503428;
2;03:58:20:530;5.2085857;5.722142;
2;03:58:20:540;3.0992942;3.2202013;
2;03:58:20:550;4.0761285;5.3522377;
2;03:58:20:560;-7.2711906;7.023391;
2;03:58:20:571;-1.1061212;7.7560163;
2;03:58:20:582;-1.6352397;10.086772;
2;03:58:20:593;-2.8909986;3.705027;
2;03:58:20:602;-1.8327614;11.012131;
2;03:58:20:612;0.6380547;3.2968156;
2;03:58:20:623;-8.51019;3.465607;
2;03:58:20:632;-3.5242648;4.996699;
2;03:58:20:643;1.958457;5.5868697;
2;03:58:20:652;5.4432178;-2.1404164;
2;03:58:20:662;-3.321955;-4.519056;
2;03:58:20:672;-3.5757403;0.15083471;
2;03:58:20:683;-4.746505;0.33518824;
2;03:58:20:692;-1.3132197;0.05267244;
2;03:58:20:702;-0.10654198;1.532289;
2;03:58:20:712;-7.6351094;-1.2964603;
2;03:58:20:723;3.8055837;-3.6296098;
2;03:58:20:733;-0.6380547;-0.36511576;
2;03:58:20:744;4.781221;-0.19632454;
2;03:58:20:754;5.910087;0.79726917;
2;03:58:20:764;6.206968;1.9273324;
2;03:58:20:774;8.050503;0.49559975;
2;03:58:20:785;12.871228;0.21188685;
2;03:58:20:794;12.871228;0.21188685;
2;03:58:20:805;12.871228;0.21188685;
2;03:58:20:815;4.232949;-2.5594015;
2;03:58:20:825;18.70949;1.1755531;
2;03:58:20:836;12.091916;1.5334862;
2;03:58:20:847;19.406202;-5.21936;
2;03:58:20:858;10.371682;0.7266402;
2;03:58:20:868;17.481264;-2.1164744;
2;03:58:20:878;4.7788267;5.3103395;
2;03:58:20:889;5.7508726;-6.9228344;
2;03:58:20:899;15.136143;2.007538;
2;03:58:20:910;7.2221093;3.3674448;
2;03:58:20:920;-8.611943;-1.7872716;
2;03:58:20:931;5.579687;-6.918046;
2;03:58:20:941;11.45865;5.7005944;
2;03:58:20:952;5.993884;-2.0338743;
2;03:58:20:963;7.41604;3.4680011;
2;03:58:20:974;7.4495587;0.62249243;
2;03:58:20:984;4.110844;-3.2501287;
2;03:58:20:994;5.4444146;1.0594343;
2;03:58:21:004;6.167464;-0.40462008;
2;03:58:21:014;3.9911342;3.3147724;
2;03:58:21:025;8.541314;1.79206;
2;03:58:21:035;8.589199;2.6431987;
2;03:58:21:046;5.0984526;0.06464344;
2;03:58:21:056;12.142194;2.6731262;
2;03:58:21:067;-2.123657;-0.5710171;
2;03:58:21:077;1.2114661;-2.0733786;
2;03:58:21:087;3.1555579;-0.24181437;
2;03:58:21:098;4.9296613;-0.78170687;
2;03:58:21:110;11.173739;-1.555034;
2;03:58:21:120;13.491326;-2.0757728;
2;03:58:21:130;-0.44891283;-3.8019924;
2;03:58:21:140;3.4919431;-4.3358994;
2;03:58:21:150;0.79607207;2.2637177;
2;03:58:21:160;17.408241;0.4237737;
2;03:58:21:170;8.307879;-3.596091;
2;03:58:21:181;-2.72939;1.9369092;
2;03:58:21:190;10.532093;3.0430303;
2;03:58:21:200;4.3239284;-0.40462008;
2;03:58:21:210;9.113529;3.7565024;
2;03:58:21:220;15.357607;-0.34476504;
2;03:58:21:230;17.199945;0.015562311;
2;03:58:21:240;-2.3786395;-3.1028855;
2;03:58:21:250;15.160085;6.2464724;
2;03:58:21:261;9.344569;-16.394297;
2;03:58:21:272;16.48767;-1.1971009;
2;03:58:21:282;13.781025;3.8977604;
2;03:58:21:291;12.980165;-7.595605;
2;03:58:21:301;18.990808;-5.221754;
2;03:58:21:311;1.1755531;-0.60333884;
2;03:58:21:321;-21.849485;-0.700304;
2;03:58:21:331;6.585252;-6.0824695;
2;03:58:21:341;25.914839;7.192182;
2;03:58:21:351;20.065804;-4.9320555;
2;03:58:21:362;22.63239;2.5881321;
2;03:58:21:373;16.791733;-5.1690817;
2;03:58:21:384;3.1028855;-1.6843209;
2;03:58:21:394;-23.896526;9.0081835;
2;03:58:21:404;11.9614315;7.548918;
2;03:58:21:414;15.842433;2.372654;
2;03:58:21:424;27.955896;-5.427655;
2;03:58:21:435;12.081141;3.3411086;
2;03:58:21:446;15.817293;-10.529699;
2;03:58:21:457;27.63627;2.8095956;
2;03:58:21:468;6.1650696;-1.210269;
2;03:58:21:479;8.835801;-4.1144357;
2;03:58:21:490;3.1759086;-2.9879637;
2;03:58:21:499;-10.420763;1.1312603;
2;03:58:21:509;6.2620344;10.672154;
2;03:58:21:519;9.79827;-6.6606693;
2;03:58:21:530;15.653291;2.3774424;
2;03:58:21:540;21.509508;-3.4476504;
2;03:58:21:550;4.9823337;1.5562311;
2;03:58:21:560;10.267534;4.164714;
2;03:58:21:571;8.250419;3.4344823;
2;03:58:21:582;6.3925185;-3.0346506;
2;03:58:21:592;-5.1666875;0.2873042;
2;03:58:21:603;15.605407;6.4164605;
2;03:58:21:612;-3.052607;-2.255338;
2;03:58:21:622;13.572729;10.658986;
2;03:58:21:632;15.762227;2.2158337;
2;03:58:21:642;-3.1495724;3.0502129;
2;03:58:21:652;9.003395;1.412579;
2;03:58:21:662;14.782998;-6.719327;
2;03:58:21:672;16.231491;2.6491842;
2;03:58:21:682;4.2916064;-6.481104;
2;03:58:21:692;-1.9800048;1.2593501;
2;03:58:21:702;-9.850943;8.799889;
2;03:58:21:712;0.62728083;-5.6766524;
2;03:58:21:723;-1.353921;4.2796354;
2;03:58:21:733;9.856929;1.8148049;
2;03:58:21:743;-0.36511576;-1.0857705;
2;03:58:21:753;5.3582234;-1.2282255;
2;03:58:21:763;1.2856863;0.5315128;
2;03:58:21:774;7.941567;1.5227122;
2;03:58:21:785;-4.4364557;-1.1168951;
2;03:58:21:795;0.055066638;-2.0829554;
2;03:58:21:805;3.1615434;-1.9476831;
2;03:58:21:815;5.482722;5.0266266;
2;03:58:21:825;5.9412117;-3.1986535;
2;03:58:21:835;5.019444;6.519411;
2;03:58:21:846;0.18794483;1.3670892;
2;03:58:21:857;-1.1168951;-1.2413936;
2;03:58:21:868;-5.294777;2.2816741;
2;03:58:21:879;-2.148796;1.4879963;
2;03:58:21:890;-4.2161894;0.7433996;
2;03:58:21:899;4.8039656;2.8622682;
2;03:58:21:909;10.833763;-0.8559271;
2;03:58:21:919;-1.4544775;-2.7629087;
2;03:58:21:930;-1.6567876;-1.1408371;
2;03:58:21:941;-6.3206925;3.1663318;
2;03:58:21:951;-2.8682537;0.8774749;
2;03:58:21:961;1.340753;4.4795513;
2;03:58:21:971;5.448006;-2.6647465;
2;03:58:21:981;0.5446809;1.5286977;
2;03:58:21:991;3.5122938;-4.7381253;
2;03:58:22:002;-0.39025488;4.2544966;
2;03:58:22:013;0.46926352;2.2984335;
2;03:58:22:023;-4.9799395;-0.31004912;
2;03:58:22:033;1.8974048;1.6232687;
2;03:58:22:043;-6.9527617;-0.22864626;
2;03:58:22:053;-3.6212301;2.4600422;
2;03:58:22:064;4.003105;2.1212628;
2;03:58:22:074;-7.7811556;-1.1444284;
2;03:58:22:084;0.39743748;-1.4137762;
2;03:58:22:094;-5.8466406;-0.074220255;
2;03:58:22:105;-2.12246;3.6894648;
2;03:58:22:115;1.8782512;0.1448492;
2;03:58:22:125;-3.6260185;0.6991069;
2;03:58:22:135;1.0067618;1.1815386;
2;03:58:22:145;-7.3537903;1.3192052;
2;03:58:22:155;-2.135628;4.185065;
2;03:58:22:165;1.2497733;-5.1475334;
2;03:58:22:175;-10.104729;4.7261543;
2;03:58:22:185;-0.8523358;-3.7205894;
2;03:58:22:195;-9.224859;0.70509243;
2;03:58:22:205;3.4488475;4.26527;
2;03:58:22:215;-0.9516952;-0.046686932;
2;03:58:22:225;-2.5510218;1.22224;
2;03:58:22:235;0.7374141;2.5151088;
2;03:58:22:246;-11.702858;-0.15562311;
2;03:58:22:257;-2.586935;-1.021127;
2;03:58:22:268;-7.7069354;-2.8311436;
2;03:58:22:278;4.4220905;3.083732;
2;03:58:22:288;0.5530606;-1.7836803;
2;03:58:22:298;-3.8187518;5.3486466;
2;03:58:22:309;0.29807812;3.8594532;
2;03:58:22:320;0.6715736;2.043451;
2;03:58:22:331;-4.545392;1.0319009;
2;03:58:22:342;-8.1343;-3.4919431;
2;03:58:22:352;-3.2273839;1.5897499;
2;03:58:22:362;0.25617957;1.6986861;
2;03:58:22:372;0.80325466;3.9995139;
2;03:58:22:382;-2.1308396;4.4999022;
2;03:58:22:393;-12.273875;-0.41299978;
2;03:58:22:404;-3.891775;1.9692309;
2;03:58:22:415;-3.891775;1.9692309;
2;03:58:22:424;-4.927267;-3.2740707;
2;03:58:22:434;-5.946;-2.1811178;
2;03:58:22:445;3.8857894;0.80564886;
2;03:58:22:455;3.0885203;0.63087213;
2;03:58:22:465;-3.4751837;0.021547815;
2;03:58:22:475;1.5562311;3.039439;
2;03:58:22:486;-4.7321396;0.47046062;
2;03:58:22:497;-1.9524715;1.460463;
2;03:58:22:508;-5.4647655;-7.0245876;
2;03:58:22:519;-2.0638018;9.232041;
2;03:58:22:529;-2.6084828;-2.267309;
2;03:58:22:539;-1.6663644;1.043872;
2;03:58:22:549;-2.7246015;-1.067814;
2;03:58:22:559;-4.4544125;3.1364043;
2;03:58:22:570;-5.955577;0.30645782;
2;03:58:22:580;-4.8482585;-2.6791117;
2;03:58:22:590;-8.208521;0.015562311;
2;03:58:22:600;0.32202014;-3.5817258;
2;03:58:22:610;-8.010999;2.1799207;
2;03:58:22:620;-10.360908;-2.8263552;
2;03:58:22:630;-6.4906807;0.5470751;
2;03:58:22:641;-10.479421;-0.61650693;
2;03:58:22:652;-6.0285997;-3.5661635;
2;03:58:22:662;2.2373815;7.358579;
2;03:58:22:672;-13.778631;-2.0278888;
2;03:58:22:682;-11.419145;-3.3327289;
2;03:58:22:692;-3.2812533;-0.9780314;
2;03:58:22:702;-3.8127663;0.7637503;
2;03:58:22:712;-6.23091;-0.40462008;
2;03:58:22:722;-3.2513258;0.33997664;
2;03:58:22:733;-8.678981;-0.89064306;
2;03:58:22:744;-7.739257;0.32202014;
2;03:58:22:755;-4.820725;-0.7505822;
2;03:58:22:765;-5.707777;-0.16759412;
2;03:58:22:775;-4.900931;2.0350714;
2;03:58:22:785;-18.339584;-9.163807;
2;03:58:22:795;-5.9292407;-0.04309563;
2;03:58:22:805;-6.453571;0.62368953;
2;03:58:22:815;-10.415975;-6.501455;
2;03:58:22:826;-5.7736173;2.1523874;
2;03:58:22:837;-12.155362;-2.8886044;
2;03:58:22:847;6.0920463;-0.79367787;
2;03:58:22:857;-8.269572;-2.6120741;
2;03:58:22:867;-11.791444;-1.3311762;
2;03:58:22:877;-7.253234;-3.0071173;
2;03:58:22:887;-14.070724;0.15682021;
2;03:58:22:897;-0.39025488;-5.3965306;
2;03:58:22:907;-11.6908865;0.48482585;
