Round;Timestamp;AccX;AccY;
8;10;-4.423288;11.536461;
8;30;-3.7689521;2.3204606;
8;80;1.5801731;5.542577;
8;133;-1.9184738;2.602258;
8;184;-1.7338808;0.7015011;
8;235;-4.5336604;0.8066066;
8;287;-1.0879253;1.3682863;
8;338;-1.061589;1.0651805;
8;390;-0.70533174;1.0354923;
8;441;-3.0633807;-1.5152903;
8;493;-0.96031415;-0.38594532;
8;548;-7.5041456;-1.4001291;
8;599;-2.7873294;-2.238818;
8;650;-9.716389;-1.5703567;
8;703;-8.813775;0.55258185;
8;755;-7.9846625;-2.0590134;
8;805;-9.098684;-2.6388893;
8;858;-8.313626;-2.0144813;
8;912;-9.00579;-3.2360032;
8;965;-8.962454;-3.213737;
8;1017;-6.2933984;-0.77045417;
8;1068;-5.5394645;3.229299;
8;1120;-4.3584046;4.2750864;
8;1171;-2.9472623;4.510676;
8;1223;0.053151272;1.4784195;
8;1276;1.4369999;2.7559657;
8;1329;1.2464215;2.1911733;
8;1382;-0.3533841;3.3679237;
8;1434;-2.5376143;1.1927913;
8;1485;1.6721103;2.655888;
8;1535;1.168131;2.8708873;
8;1587;2.844551;1.7513584;
8;1641;0.38977608;2.529474;
8;1696;2.657803;0.51451385;
8;1749;2.2452824;3.8393416;
8;1803;-1.0869677;2.3360226;
8;1855;2.6362557;-0.20733781;
8;1906;-0.45346174;2.8265946;
8;1957;0.30717605;3.258269;
8;2008;-2.0803218;-2.655888;
8;2061;3.3245883;-0.10199318;
8;2115;4.002866;2.2495918;
8;2167;15.215869;-8.084261;
8;2221;-1.1858482;1.1197684;
8;2276;12.170446;-4.23654;
8;2328;8.822154;-4.652892;
8;2381;7.8371797;-2.6451142;
8;2434;15.906598;-1.9704281;
8;2486;7.432559;-0.7149086;
8;2538;16.27363;-1.0323797;
8;2590;7.241742;-1.4935031;
8;2640;19.567093;-2.3870192;
8;2692;1.9907787;3.2731133;
8;2743;6.31758;4.210683;
8;2795;2.4607606;4.3423634;
8;2848;2.6590004;5.1032405;
8;2901;3.5604172;4.8856077;
8;2954;-3.3870769;2.686294;
8;3008;-4.6105146;2.9060822;
8;3061;-4.465904;1.9711463;
8;3114;-3.244622;2.5084052;
8;3166;-3.847961;2.6273968;
8;3220;-1.1520898;2.9905975;
8;3274;1.5119383;4.60812;
8;3327;-6.968085;0.29999346;
8;3378;-5.3448157;-0.20733786;
8;3431;-4.820965;1.2385206;
8;3483;-6.2335434;1.8878279;
8;3534;-7.389704;2.2230163;
8;3585;-3.6157234;2.2788012;
8;3636;-3.0796616;-1.3974955;
8;3686;-1.1891998;3.0760703;
8;3737;-0.12617436;2.0740972;
8;3788;-1.8495209;0.27461484;
8;3840;-0.65936327;-0.5568913;
8;3891;-2.1617248;3.185964;
8;3945;0.08259964;-4.0938454;
8;3998;2.499786;-1.8191143;
8;4050;8.69981;1.4456189;
8;4104;10.089645;-3.418202;
8;4155;6.341522;-1.5258248;
8;4207;11.741884;-2.8979418;
8;4258;9.521502;-2.8972237;
8;4311;14.574942;-0.9686941;
8;4363;22.719538;-0.9193735;
8;4414;3.2395942;-1.0347741;
8;4464;21.72379;-1.0139444;
8;4515;5.717832;-1.1262324;
8;4567;10.016861;1.7760187;
8;4619;2.8972235;5.9098477;
8;4671;9.89763;0.98760813;
8;4722;1.0989387;4.0035844;
8;4775;0.52887917;5.002445;
8;4827;2.291251;0.9809044;
8;4877;7.8323913;2.0420146;
8;4927;6.628826;-0.11947064;
8;4980;6.7796607;1.2081141;
8;5032;3.595612;0.48291054;
8;5085;5.7343526;1.5308526;
8;5137;7.4193916;-0.18962078;
8;5187;3.2415097;1.5820885;
8;5240;5.7918134;1.6249447;
8;5294;6.3566046;-5.422867;
8;5346;6.9405503;-1.7638085;
8;5399;5.363491;8.442674;
8;5452;6.046317;-1.680969;
8;5506;1.3792996;0.7199364;
8;5560;-0.39624032;0.055784892;
8;5611;-7.798154;-3.9106889;
8;5662;-0.38426924;0.83557636;
8;5714;-7.4627266;-0.43191403;
8;5765;-4.6888046;-7.5077376;
8;5818;-9.371862;-0.3201049;
8;5870;-12.916;-2.0757728;
8;5923;-6.0906096;0.42137948;
8;5976;-14.379816;-1.0651802;
8;6027;-13.669932;-7.294893;
8;6079;-8.141005;-1.5875952;
8;6132;-8.57675;-0.68593884;
8;6185;-7.3023148;-1.6716316;
8;6237;-2.633861;4.3643904;
8;6289;-3.9327157;3.1804574;
8;6342;-0.64092785;4.155137;
8;6394;-4.548265;6.2107987;
8;6444;-4.018428;1.9065027;
8;6495;-7.0949774;0.71490866;
8;6547;-6.671683;3.7744591;
8;6600;-3.999514;4.6789885;
8;6652;-5.0567937;2.7382483;
8;6704;-1.3831303;1.2902353;
8;6756;-0.2006342;3.9513907;
8;6811;-1.4408307;2.7629087;
8;6863;-0.88154507;-0.42042178;
8;6914;-1.268448;3.628173;
8;6965;-0.0684741;-1.0922348;
8;7016;-0.59112835;2.6228478;
8;7068;-0.097922936;5.1935024;
8;7121;-4.328238;-3.0135818;
8;7174;-8.67539;-1.9907787;
8;7226;-7.203435;-5.0855236;
8;7278;-9.933303;-6.2912436;
8;7333;-12.300929;5.705383;
8;7384;-11.620498;-1.0848129;
8;7435;-6.749733;-0.13072343;
8;7486;-10.180864;-2.9218838;
8;7539;-11.479239;-4.363672;
8;7591;-7.3444533;-0.8588001;
8;7643;-12.534843;-2.2376208;
8;7694;-8.9823265;3.598964;
8;7744;-7.3813233;6.923074;
8;7797;-10.721476;1.4621391;
8;7848;-4.786967;7.2388687;
8;7901;-5.1923056;1.886631;
8;7953;1.1307815;4.296634;
8;8006;-3.5738251;5.878244;
8;8060;1.5555129;2.0140023;
8;8113;-3.9039855;-1.521994;
8;8165;1.5928624;3.3502069;
8;8217;0.8013393;-2.9295452;
8;8267;-0.8384493;2.4930825;
8;8318;-4.88489;-2.9106312;
8;8369;2.7466283;7.172311;
8;8421;-0.40007114;0.60932416;
8;8474;-1.5332468;0.8401254;
8;8525;-3.0406358;3.9001546;
8;8578;-2.7674575;-1.9718645;
8;8630;-6.9166093;-2.2129605;
8;8682;-8.668207;-2.1428103;
8;8733;-10.253408;-2.8409598;
8;8784;-6.1576476;-1.6338034;
8;8834;-9.689573;-1.6859968;
8;8888;-13.073059;-5.836824;
8;8942;-8.236532;-0.7927202;
8;8995;-13.759717;-1.3306974;
8;9048;-5.73555;1.3220781;
8;9100;-5.7875037;-4.0732555;
8;9154;-12.2034855;-1.8069038;
8;9207;-1.2016499;4.4848185;
8;9260;-5.832515;3.4162865;
8;9312;-0.8932766;1.4142549;
8;9365;-2.5084052;2.1983562;
8;9418;-1.4956577;0.90764177;
8;9470;1.3053187;4.274847;
8;9522;-4.237258;-1.272997;
8;9574;8.572919;1.5466543;
8;9625;-2.2100873;2.1162353;
8;9678;-9.764032;-1.9292479;
8;9732;-3.322673;2.2807164;
8;9785;-4.9334917;0.33207574;
8;9838;-6.528988;4.443399;
8;9889;-4.999093;1.9194314;
8;9941;3.249171;0.87962973;
8;9994;5.799954;-1.5394717;
8;10045;9.260054;-4.040694;
8;10097;13.948619;-2.319263;
8;10150;6.822757;-3.5577838;
8;10204;12.700762;-1.0129868;
8;10258;15.129679;-0.21356277;
8;10310;10.304884;-0.009098053;
8;10363;12.125674;-1.4994885;
8;10416;17.101543;-2.5400088;
8;10470;7.932948;-0.9272741;
8;10523;15.1955185;-1.6472107;
8;10577;15.264952;-1.8253393;
8;10628;-1.7113755;6.297229;
8;10679;6.6312203;6.4858923;
8;10730;2.4598029;4.068467;
8;10782;-3.0368054;5.7369866;
8;10833;0.7381325;3.8424542;
8;10884;1.2722787;4.694072;
8;10935;-0.26838994;3.9351096;
8;10986;1.9989189;2.3403323;
8;11037;1.6079458;4.1082106;
8;11089;0.69240314;4.4800305;
8;11142;2.1533453;3.6087804;
8;11195;-1.9273325;2.8083987;
8;11248;-1.8483236;1.2698846;
8;11302;2.514151;1.7590199;
8;11355;0.40078932;2.6920407;
8;11410;-1.0242395;-2.8119898;
8;11463;-5.1642933;0.8149862;
8;11516;-9.128373;-3.9413352;
8;11569;-7.4962454;-2.7873294;
8;11622;-7.386112;-0.34668037;
8;11674;-10.832565;-0.97156715;
8;11726;1.335007;-1.756147;
8;11779;-7.0904284;-1.4013262;
8;11832;-10.73584;-0.8784326;
8;11885;-10.643903;-1.6522386;
8;11937;-7.4787683;-2.150472;
8;11989;-8.516176;1.3881582;
8;12040;-2.9668946;3.7797265;
8;12091;-2.9240386;7.1902666;
8;12143;-3.6118927;4.358884;
8;12195;1.348175;1.8186356;
8;12246;-3.6253002;3.1086316;
8;12297;-0.16136928;3.2838871;
8;12347;-0.029209232;2.814384;
8;12400;-1.5322891;1.9677942;
8;12451;-1.5167267;1.6194379;
8;12504;0.06799531;3.2975338;
8;12556;-2.9077582;-0.3615245;
8;12607;-3.7450104;2.3702598;
8;12658;-1.7192762;1.6721106;
8;12711;-3.4993653;-1.9536686;
8;12764;-1.4343662;4.378995;
8;12816;-2.5285163;3.1830912;
8;12870;-1.3625401;2.705687;
8;12924;-4.185065;-2.4128764;
8;12977;-0.63230866;0.9935937;
8;13029;-0.7022198;1.0977414;
8;13081;1.8593371;3.3241096;
8;13134;2.1100097;-2.3580492;
8;13186;1.2310984;1.7389088;
8;13237;5.9409723;-1.2988545;
8;13289;5.6852713;0.527682;
8;13340;2.4155102;0.07948742;
8;13391;8.625589;2.4277205;
8;13442;3.9506721;0.4661511;
8;13493;4.167587;-1.4094665;
8;13545;3.81109;1.1645396;
8;13596;0.73932946;2.088462;
8;13647;1.0005368;-2.178484;
8;13699;-1.800679;0.88202393;
8;13750;-2.197638;-1.4142548;
8;13801;1.8629284;2.8299463;
8;13852;-0.20231;-3.8209064;
8;13904;2.4315512;0.74627274;
8;13957;-1.9677944;-3.082056;
8;14011;0.34931403;-1.8796877;
8;14063;-0.13934258;-2.7751193;
8;14116;-1.0711658;-0.22385783;
8;14169;-1.5246276;-4.6739607;
8;14222;0.26384085;-12.462297;
8;14273;0.855209;-8.883685;
8;14324;-6.9352837;-1.9665973;
8;14376;-2.0195093;-14.650599;
8;14429;-4.0284834;-10.512701;
8;14484;-6.3194957;-0.72807676;
8;14534;-10.340319;-3.9207447;
8;14587;-9.293812;-2.3422475;
8;14640;-6.7846885;-2.0161572;
8;14692;-3.4222722;-2.1234174;
8;14744;-8.928218;-1.4290988;
8;14796;-7.554185;-1.6618154;
8;14847;-8.973948;-2.3005884;
8;14898;-7.1498046;-1.455914;
8;14951;-6.1018624;-2.3149536;
8;15005;-0.20949249;7.0133348;
8;15056;-6.1109605;6.953959;
8;15107;-5.7202272;4.5492225;
8;15158;-3.9667137;6.9644938;
8;15209;2.8900409;1.2349293;
8;15259;0.35482064;7.438305;
8;15309;2.8615499;2.6601975;
8;15361;-0.7436391;2.3736117;
8;15413;5.21098;1.6084245;
8;15465;4.9126625;7.1340027;
8;15518;4.279875;2.710715;
8;15569;3.9805999;2.2452824;
8;15620;3.209188;1.5095441;
8;15673;3.0171728;3.4390311;
8;15724;2.1751325;2.078167;
8;15776;-0.19704285;1.5212758;
8;15828;-3.4141316;2.0958843;
8;15880;1.0390836;3.2941823;
8;15934;-0.885376;1.9000385;
8;15989;-2.3403325;1.2083536;
8;16041;-0.78457993;-0.62273186;
8;16091;-3.1986535;-2.3137565;
8;16142;-2.268985;-2.249113;
8;16193;0.5777209;0.46495384;
8;16244;-1.9876661;-1.5040376;
8;16295;2.691801;-4.3344626;
8;16347;-2.0432117;0.36320028;
8;16401;-2.5694573;-0.8468291;
8;16452;-2.441607;1.9946095;
8;16502;-1.1089941;-8.711543;
8;16553;-4.545871;-0.63589996;
8;16604;-8.2322235;-15.297033;
8;16655;1.7456125;-9.512642;
8;16708;-4.933253;-10.957064;
8;16760;-4.820007;-6.380069;
8;16811;-5.9979544;-5.1700387;
8;16863;-8.697657;-1.851915;
8;16915;-5.124549;-4.0064573;
8;16966;-7.7859445;-0.42497078;
8;17016;-5.852147;0.42473134;
8;17066;-2.025734;-3.3691208;
8;17116;-5.39677;-0.2966416;
8;17166;-6.6803017;-1.2756307;
8;17216;-7.791211;-1.7255013;
8;17270;-3.9791634;0.2513912;
8;17321;-2.662831;0.5295974;
8;17372;-2.6214113;-0.97491884;
8;17423;-4.644273;-0.58179116;
8;17476;0.6581659;4.443877;
8;17528;-6.2270794;4.208049;
8;17580;-2.5155876;4.4706926;
8;17634;-0.9775524;0.8810662;
8;17684;-0.27174187;3.3650506;
8;17738;-0.088106535;1.799482;
8;17793;-0.85137814;2.963064;
8;17846;-0.9696516;-1.4140155;
8;17897;-3.2719162;3.7670372;
8;17947;-2.5929203;2.1815965;
8;17998;-4.4465113;-0.47716442;
8;18051;-2.3563733;0.48410758;
8;18104;-8.388565;-0.874123;
8;18155;-7.3614516;-0.8425196;
8;18209;-3.5963302;-2.4674642;
8;18262;1.0874463;-2.0566192;
8;18314;1.1147404;-1.2823344;
8;18365;0.9332598;-1.6395493;
8;18416;0.7948751;-0.37517142;
8;18466;1.2799402;-1.001734;
8;18516;2.8347344;-1.2059593;
8;18567;1.4219164;0.24181442;
8;18618;-3.6327224;-3.144784;
8;18670;3.2874782;0.5717353;
8;18721;-2.764585;-3.189795;
8;18771;2.47321;-1.9642031;
8;18821;6.365225;-0.5662287;
8;18872;1.9474436;0.37612906;
8;18925;5.0757074;-1.0079589;
8;18976;3.8290467;-2.9398403;
8;19027;1.2727578;0.024420787;
8;19077;4.705085;-2.228044;
8;19128;1.0618284;-1.646253;
8;19180;0.4903326;-0.63781536;
8;19232;0.70006466;-0.3047819;
8;19283;1.5964538;-0.21763296;
8;19333;-0.21284457;-0.9433155;
8;19385;0.39959222;-1.0005369;
8;19435;1.0654199;-2.107137;
8;19488;-1.5507246;0.16232686;
8;19538;-2.568739;1.0491391;
8;19589;0.725922;-2.0887017;
8;19639;-6.0841455;3.919787;
8;19671;-6.939594;-0.24660277;
8;19671;-6.939594;-0.24660277;
