Round;Timestamp;AccX;AccY;AccZ;Acc Vector a;
0;06:57:41:737;-2.7102363;3.5290532;9.144653;10.16977314833875;
0;06:57:41:747;-2.7102363;3.5290532;9.144653;10.16977314833875;
0;06:57:41:757;2.336741;3.7493198;9.740809;10.695846065032677;
0;06:57:41:767;0.46926352;2.4636335;10.608707;10.901117642000134;
0;06:57:41:777;2.920926;0.59855044;13.980941;14.295341234327335;
0;06:57:41:787;-0.6871359;-0.4261679;7.7081323;7.750424281165898;
0;06:57:41:797;0.7445967;1.2401965;10.972627;11.067567515954662;
0;06:57:41:807;3.5625722;4.787206;8.815451;10.645254419241967;
0;06:57:41:817;-8.72088;-0.94211835;7.052121;11.254943100773996;
0;06:57:41:827;-0.33758244;6.655881;13.128605;14.723279640722248;
0;06:57:41:837;-1.9045875;-1.8100165;8.221688;8.63132499203709;
0;06:57:41:847;0.320823;-2.825158;13.166912;13.47041243275047;
0;06:57:41:858;4.4879313;4.911705;13.614628;15.15336483895187;
0;06:57:41:868;-4.6232033;1.8782512;5.1223946;7.15127697191918;
0;06:57:41:878;0.39145198;0.6775591;14.086286;14.108003636289668;
0;06:57:41:889;2.078167;2.1045034;13.80377;14.117074008605789;
0;06:57:41:900;-3.0909145;0.15083471;8.364143;8.918261756711924;
0;06:57:41:911;0.24420857;3.9911342;10.371682;11.115780900232455;
0;06:57:41:922;2.6910827;4.993108;5.8346696;8.137346951265716;
0;06:57:41:932;4.3047748;2.8191724;13.708002;14.641999105907049;
0;06:57:41:943;-2.5390508;1.1971009;17.304092;17.53030039345492;
0;06:57:41:954;-2.1523874;0.33758244;12.532449;12.720416885358148;
0;06:57:41:965;-0.878672;1.3251907;4.593276;4.8606973792925565;
0;06:57:41:975;1.2904748;0.93254155;12.75511;12.854095969889325;
0;06:57:41:986;-5.49589;-0.8475474;10.03769;11.475119835720262;
0;06:57:41:996;0.053869538;2.2230163;13.6014595;13.782031670717357;
0;06:57:42:007;-2.6084828;4.068946;5.199009;7.098605338649716;
0;06:57:42:018;-4.4580035;4.2916064;14.33648;15.614940120937664;
0;06:57:42:029;3.288436;-1.0175357;8.528147;9.19665569390028;
0;06:57:42:040;-1.4532804;0.12808979;7.7081323;7.844981305870213;
0;06:57:42:050;1.6915035;1.5215151;16.373945;16.531250923026914;
0;06:57:42:060;1.271321;3.845088;11.725603;12.405269708987966;
0;06:57:42:070;0.08020575;0.8690952;5.3223104;5.393398467064726;
0;06:57:42:080;-7.064092;2.6479871;8.416816;11.302921180901851;
0;06:57:42:090;4.571728;1.9273324;15.702372;16.467537127716895;
0;06:57:42:101;1.1073183;-2.042254;13.633781;13.830290923241071;
0;06:57:42:112;-0.12330139;-0.7745243;10.836157;10.864501094537344;
0;06:57:42:123;-1.6903064;0.48123455;7.955932;8.147734775397076;
0;06:57:42:134;5.843049;1.0773908;11.69807;13.120473317238192;
0;06:57:42:145;-4.5537715;-1.8351556;5.5377884;7.400792682565988;
0;06:57:42:156;-8.103176;-0.90381116;12.794614;15.171700002209088;
0;06:57:42:171;-6.283582;0.09935937;7.656657;9.90543667796882;
0;06:57:42:181;-0.78649527;0.2621651;15.326482;15.34888752935117;
0;06:57:42:191;4.24492;1.8938135;13.153744;13.950873147307506;
0;06:57:42:201;4.7141833;1.6651673;12.540829;13.500692279161154;
0;06:57:42:212;-0.6631939;-1.1803415;8.210915;8.321787758003554;
0;06:57:42:223;-2.5187001;0.046686932;6.849811;7.298351979719329;
0;06:57:42:234;4.220978;4.4161053;2.086547;6.45540994088546;
0;06:57:42:244;0.79248077;-4.3658266;13.02326;13.758406964726376;
0;06:57:42:254;-3.0238767;0.8810662;10.453085;10.917283911884645;
0;06:57:42:265;-1.6448165;-1.459266;13.450625;13.629167671790572;
0;06:57:42:276;5.279215;3.5170822;9.880871;11.74187302057257;
0;06:57:42:286;6.0465565;1.151611;11.480197;13.02620344990663;
0;06:57:42:296;5.1882353;3.345897;5.01705;7.955098984520283;
0;06:57:42:307;-5.0517654;-0.9540894;6.9970546;8.682706759270433;
0;06:57:42:317;-3.5865142;-0.36511576;8.385692;9.127771662083617;
0;06:57:42:327;6.1411276;1.2785037;6.4416;8.9912304008458;
0;06:57:42:337;2.706645;1.4101849;6.0285997;6.757111935327323;
0;06:57:42:347;2.6048915;0.89782566;14.268245;14.531839600773784;
0;06:57:42:358;-2.0207062;0.19991584;9.343372;9.561476309840065;
0;06:57:42:368;3.6894648;1.3802572;5.8717794;7.0707182204033385;
0;06:57:42:378;5.446809;3.0693667;10.577583;12.28714771716518;
0;06:57:42:389;1.4879963;-3.1064768;12.194866;12.671980964415154;
0;06:57:42:400;-0.107739076;2.861071;8.340201;8.817952951251684;
0;06:57:42:411;2.232593;-2.1906946;10.225636;10.693326733683058;
0;06:57:42:422;4.292804;2.1523874;12.586318;13.47131578120538;
0;06:57:42:433;-4.7788267;0.51595044;8.12592;9.441078972658197;
0;06:57:42:443;-8.385692;0.6440403;9.012972;12.327541400357942;
0;06:57:42:453;-4.7536874;2.8275523;11.416751;12.686008008602862;
0;06:57:42:463;1.5705963;-1.2880806;13.846866;13.995056914567806;
0;06:57:42:474;2.813187;1.4532804;9.750386;10.251637769904477;
0;06:57:42:484;3.2154129;-0.007182605;15.198392;15.534801176951763;
0;06:57:42:495;-6.191406;3.1028855;10.1226845;12.264996749435847;
0;06:57:42:505;-8.954314;3.4237084;9.67018;13.616677638547127;
0;06:57:42:515;0.91458505;1.1109096;12.452243;12.535108167366491;
0;06:57:42:526;-0.93493575;-2.7389667;15.045163;15.320997721800179;
0;06:57:42:537;-0.1400608;3.1423898;12.949039;13.325608940596123;
0;06:57:42:547;4.164714;1.3958195;10.92594;11.775793456215062;
0;06:57:42:558;-4.4184995;-0.8391677;9.664195;10.659456279694144;
0;06:57:42:568;4.533421;3.9456444;4.5034933;7.510091223435716;
0;06:57:42:579;-3.558981;-0.2753332;8.438364;9.162321922164223;
0;06:57:42:590;0.9684546;-2.7449522;8.892065;9.356360457895281;
0;06:57:42:601;2.789245;1.0019734;12.969391;13.303718930356643;
0;06:57:42:611;2.753332;0.6859388;14.038402;14.322292659228884;
0;06:57:42:622;-6.171055;2.3427265;13.959393;15.441338065875264;
0;06:57:42:633;-5.969942;5.2181625;4.626795;9.180231865508201;
0;06:57:42:643;2.4396915;1.2378023;10.00896;10.376103721647294;
0;06:57:42:654;0.36152446;1.5310919;14.213179;14.29997885108931;
0;06:57:42:665;-1.1240777;2.208651;13.30817;13.536952554864637;
0;06:57:42:675;0.08259996;-1.1360487;12.920309;12.970420637875916;
0;06:57:42:686;5.391742;3.3842041;10.84334;12.573851661502482;
0;06:57:42:695;-5.663484;5.828684;6.7648168;10.574088877573345;
0;06:57:42:706;1.1935096;-1.2449849;8.791509;8.959077836674584;
0;06:57:42:717;0.22385786;-0.3878607;13.111846;13.119491147663952;
0;06:57:42:727;1.1994951;0.90021986;15.185225;15.25910352800962;
0;06:57:42:738;-5.3366756;1.1791444;9.115923;10.628759818451083;
0;06:57:42:748;-3.086126;6.0130377;6.870162;9.637423337638914;
0;06:57:42:759;2.5127146;-0.7589619;11.161768;11.466247119177524;
0;06:57:42:769;-4.2437224;-1.3431472;12.275072;13.05720609868419;
0;06:57:42:780;-1.4030021;-6.361394;12.164939;13.799328906562245;
0;06:57:42:791;6.907272;2.6563668;13.062764;15.013410549834791;
0;06:57:42:801;-7.60997;4.593276;-0.51355624;8.903570474798693;
0;06:57:42:812;-6.0968347;1.7537527;6.2105594;8.877955414744513;
0;06:57:42:823;-3.9624038;-2.0266917;12.744335;13.4991183522874;
0;06:57:42:833;-3.5194764;-9.149442;18.39585;20.84481365000694;
0;06:57:42:844;2.0111294;-0.6344634;8.323442;8.586435985586238;
0;06:57:42:854;5.861006;8.595184;2.3139958;10.657540072661732;
0;06:57:42:865;1.745373;4.697424;13.77504;14.6582347445112;
0;06:57:42:876;-3.5470097;-2.396596;1.2533646;4.4604791248740865;
0;06:57:42:886;2.2062569;5.8693852;11.182119;12.820181576875676;
0;06:57:42:897;1.3982137;2.2577322;17.677588;17.875946660083226;
0;06:57:42:907;3.2022448;-7.133524;12.302606;14.577230575288201;
0;06:57:42:917;-2.7593174;-4.167108;16.576256;17.313314370512295;
0;06:57:42:928;-5.9483943;1.9081788;12.194866;13.701799839716541;
0;06:57:42:938;3.9875429;1.2952632;4.471172;6.129402913671527;
0;06:57:42:949;12.176909;0.58897364;11.334151;16.64593060225935;
0;06:57:42:959;-3.4608185;2.0386627;12.494142;13.123908878566999;
0;06:57:42:970;-0.79367787;0.5530606;9.776723;9.8244649260906;
0;06:57:42:980;-8.647857;-2.5210943;11.897985;14.923250304749402;
0;06:57:42:990;2.9412768;3.7122097;6.3601966;7.929924902157486;
0;06:57:43:001;5.825093;-3.9839516;16.83004;18.249762546614477;
0;06:57:43:011;5.317522;1.9261353;18.231846;19.088903333317763;
0;06:57:43:022;-3.918111;2.9963434;8.678981;9.982703700348184;
0;06:57:43:033;-1.9393034;2.6755204;9.063251;9.646855101767217;
0;06:57:43:044;-4.924873;1.3024458;7.065289;8.710284098252227;
0;06:57:43:055;3.9636009;-2.2589293;12.816162;13.6039299391771;
0;06:57:43:064;0.4237737;1.5897499;12.588713;12.69577042443356;
0;06:57:43:075;-0.32680854;4.545392;9.380483;10.428846964023561;
0;06:57:43:086;-3.551798;-0.23343466;7.026982;7.877070321313872;
0;06:57:43:096;1.5514427;2.421735;9.496601;9.922560492437132;
0;06:57:43:107;6.707356;-4.4675803;16.434998;18.304563293165877;
0;06:57:43:117;3.2872388;-0.4321534;15.717935;16.063815645596257;
0;06:57:43:128;-7.505822;0.15083471;9.272743;11.930795754227862;
0;06:57:43:139;-0.40940848;2.1428106;9.053674;9.312801074595145;
0;06:57:43:149;1.6903064;-3.4883518;16.318878;16.77293988694802;
0;06:57:43:160;-2.3750482;-4.5872903;12.106281;13.162299353364446;
0;06:57:43:170;-7.156269;1.70946;4.7405195;8.752540437571719;
0;06:57:43:181;-2.3810337;-0.37588966;10.354922;10.631793554226281;
0;06:57:43:191;-6.0728927;-0.37110126;6.2464724;8.719871312163018;
0;06:57:43:202;-1.4065934;-0.11851298;13.453019;13.526872239472354;
0;06:57:43:212;-0.6428431;-2.9412768;14.680048;14.985598962655155;
0;06:57:43:222;-9.921572;4.7441106;12.00333;16.279561077827584;
0;06:57:43:233;-4.3766007;0.20111294;8.146272;9.249693169531017;
0;06:57:43:243;-1.1599907;1.958457;10.292673;10.54135887289713;
0;06:57:43:254;-3.8175547;-3.5230677;18.976442;19.67463074547279;
0;06:57:43:264;-3.582923;1.8674773;8.400057;9.321252997654826;
0;06:57:43:274;-6.375759;1.6567876;4.5298295;7.994660980117401;
0;06:57:43:285;-1.7872716;-0.110133275;14.449007;14.559542245061902;
0;06:57:43:295;-5.5880666;0.4381389;5.2887917;7.706475881219152;
0;06:57:43:306;-3.9935284;-1.7956513;8.821436;9.848368599656851;
0;06:57:43:316;-4.1335893;3.4871547;6.999449;8.845286313388636;
0;06:57:43:327;-4.120421;-2.883816;13.875596;14.758944111094603;
0;06:57:43:338;-4.950012;-2.5462334;12.999318;14.141011303425005;
0;06:57:43:348;0.20470424;-0.40940848;13.861231;13.868786769575806;
0;06:57:43:359;-0.18076223;0.5434838;12.384008;12.397246122658904;
0;06:57:43:369;-6.6630635;2.871845;4.003105;8.286661704633008;
0;06:57:43:380;-1.4449008;0.11492168;7.313089;7.455348037178998;
0;06:57:43:390;-1.1647792;4.0078936;4.735731;6.312453468075713;
0;06:57:43:401;-2.8802247;2.706645;10.502166;11.221279188596013;
0;06:57:43:411;3.3123782;-2.208651;13.819332;14.381374372187375;
0;06:57:43:422;0.1400608;0.055066638;16.522387;16.523071804463864;
0;06:57:43:431;-4.5920787;0.29448682;7.4723034;8.775490388997234;
0;06:57:43:442;-3.1316159;2.6659436;8.433576;9.38293528099308;
0;06:57:43:452;3.98874;-0.6979098;12.961011;13.578841389149506;
0;06:57:43:462;4.3622355;-2.1021092;15.43901;16.180573973783925;
0;06:57:43:473;-1.9405005;-0.4165911;9.411607;9.618597898712128;
0;06:57:43:483;-0.7589619;-1.400608;13.734338;13.82641508230967;
0;06:57:43:494;-1.922544;2.1655555;10.218452;10.62085562267536;
0;06:57:43:504;2.967613;1.4281414;9.408015;9.967801326945528;
0;06:57:43:514;3.4356794;-0.6488287;12.525267;13.004121567194572;
0;06:57:43:523;-2.835932;-0.93373865;2.304419;3.7715680722037357;
0;06:57:43:533;-5.3235073;-2.4540567;10.994174;12.459293460316015;
0;06:57:43:543;-3.454833;-1.9440918;14.920665;15.438315922105694;
0;06:57:43:554;7.8649526;0.8463503;11.542446;13.992921402095932;
0;06:57:43:564;1.3323733;5.0996494;3.4584243;6.304152606646719;
0;06:57:43:575;14.344859;8.130709;5.5964465;17.41274284198931;
0;06:57:43:586;-1.8339585;2.7234044;12.897565;13.308926241443947;
0;06:57:43:596;-7.777564;-0.2777274;14.609419;16.553028320583255;
0;06:57:43:607;-1.5885528;-6.8486137;11.871649;13.797212313614411;
0;06:57:43:618;-3.0071173;-1.4269443;8.972271;9.569773980384518;
0;06:57:43:628;-10.244789;-4.0701427;12.864046;16.941235570243524;
0;06:57:43:639;-4.5238442;-1.8207904;7.72968;9.139387102341454;
0;06:57:43:649;7.776367;-0.5746084;12.320562;14.580751433925814;
0;06:57:43:660;-4.2556934;1.8914193;3.7912183;6.005141915987693;
0;06:57:43:671;1.1683705;-1.3503298;12.35049;12.478904929412064;
0;06:57:43:681;-6.351817;0.4165911;2.2577322;6.753997749163315;
0;06:57:43:692;-6.805518;1.5981296;10.419566;12.547368744176755;
0;06:57:43:702;0.38307226;0.8403648;9.690532;9.734442011080544;
0;06:57:43:713;-8.111555;-1.115698;11.040861;13.745643619192933;
0;06:57:43:723;-12.880805;-2.0231004;8.170214;15.38702269866711;
0;06:57:43:733;-3.4033577;-1.0175357;15.125369;15.536892209552398;
0;06:57:43:744;-10.649409;-1.2557588;12.363658;16.36602770353786;
0;06:57:43:754;-9.774328;-0.07062895;11.356895;14.984043535339362;
0;06:57:43:764;-7.1885905;0.1376666;8.385692;11.046022374163803;
0;06:57:43:775;-5.499481;1.6543933;11.383232;12.74987374037515;
0;06:57:43:786;-8.298303;-2.183512;9.958682;13.145527799333387;
0;06:57:43:797;-5.231331;-2.622848;10.985794;12.44724156718411;
0;06:57:43:809;-6.987478;-0.31483752;14.514848;16.112255175663744;
0;06:57:43:820;-9.90601;-1.8183962;10.193314;14.329662710560829;
0;06:57:43:831;-1.7525556;-0.866701;8.580819;8.80074310633101;
0;06:57:43:841;-7.321469;1.8650831;12.51928;14.62240812369623;
0;06:57:43:852;-6.6774287;-0.8762778;7.350199;9.969019392911722;
0;06:57:43:862;-10.424355;-2.4277205;11.953052;16.04482570440594;
0;06:57:43:873;-4.021062;3.0933087;11.892;12.92892747010918;
0;06:57:43:883;-10.523713;-0.8535329;8.412027;13.499602135340877;
0;06:57:43:894;-7.7560163;0.9756372;11.233594;13.685805960557788;
0;06:57:43:905;-8.808268;0.47165772;10.78109;13.929821687694949;
0;06:57:43:916;-12.819753;-3.2920272;6.3793507;14.69284207205321;
0;06:57:43:926;-7.4471645;-1.7142484;10.168175;12.719696534573481;
0;06:57:43:937;-2.8107927;3.0573955;8.343793;9.320252334387742;
0;06:57:43:948;-3.0765493;0.1328782;7.965509;8.540031859720376;
0;06:57:43:958;-15.919047;-4.2042184;9.102755;18.813603061515092;
0;06:57:43:968;-1.7082629;0.58897364;10.111911;10.27208804706617;
0;06:57:43:978;-8.406042;0.8511387;10.223241;13.262753664515714;
0;06:57:43:988;-10.260351;0.062249243;10.608707;14.758839690132264;
0;06:57:43:999;-6.8198833;-1.6819267;11.869255;13.791986897756633;
0;06:57:44:008;-10.243592;-0.022744916;9.91798;14.258261979216428;
0;06:57:44:019;-10.097546;-3.9612067;10.187328;14.880633145059775;
0;06:57:44:029;0.63087213;2.2649148;9.817424;10.095031090093826;
0;06:57:44:040;-5.9412117;0.45729253;10.020931;11.658738267004523;
0;06:57:44:050;-2.7030537;1.6112977;7.41604;8.056080236192578;
0;06:57:44:060;-3.3626564;-1.13964;10.414778;11.003355728152819;
0;06:57:44:070;-1.7250223;1.033098;9.53012;9.739927126006737;
0;06:57:44:080;-9.592369;-1.4317327;9.28232;13.424785613722628;
0;06:57:44:091;-12.706028;-2.19668;7.86615;15.104465132647345;
0;06:57:44:101;-4.471172;-1.1133038;9.380483;10.451041751023705;
0;06:57:44:111;-13.116634;-4.3514614;5.1235914;14.738809252071393;
0;06:57:44:121;-11.717223;-0.46208093;7.395689;13.863731413513992;
0;06:57:44:132;-2.3104045;-1.0594343;12.026075;12.291739839670086;
0;06:57:44:143;-7.241263;1.6352397;7.153875;10.309598757375863;
0;06:57:44:152;-9.281123;-2.3822308;7.633912;12.251158367585338;
0;06:57:44:163;-9.313444;1.1839328;7.20535;11.834652751023356;
0;06:57:44:173;-3.5087025;-0.62249243;11.993753;12.51193887860523;
0;06:57:44:183;-2.8694508;3.7780502;9.28232;10.424436880587063;
0;06:57:44:193;-4.0174704;-0.12569559;13.026852;13.63285503216861;
0;06:57:44:204;-4.2904096;-1.8231846;15.456966;16.144641358050606;
0;06:57:44:215;-8.1319065;-1.1959038;11.457452;14.10075525736565;
0;06:57:44:225;-5.6359506;-2.6611552;13.498509;14.867933630449564;
0;06:57:44:236;-2.9352913;1.1456255;12.08593;12.489919641509596;
0;06:57:44:247;-3.9755719;0.21188685;13.863625;14.423943830993258;
0;06:57:44:258;-3.1543608;3.478775;6.051345;7.659676419587397;
0;06:57:44:269;3.525462;-0.533907;8.3390045;9.069340091070574;
0;06:57:44:280;0.51235914;4.296395;7.3442135;8.52402467042601;
0;06:57:44:290;-7.797915;-1.9416976;6.089652;10.082734229414937;
0;06:57:44:300;-1.4041992;0.39025488;12.769475;12.85237578163749;
0;06:57:44:311;1.4089876;-0.7302315;15.846024;15.92529260195893;
0;06:57:44:321;-0.22505496;1.2138603;13.297397;13.35458213092426;
0;06:57:44:331;2.147599;1.1695676;11.549629;11.805676947075543;
0;06:57:44:342;6.931214;5.1463366;8.431181;12.066951898677644;
0;06:57:44:352;-3.1052797;-2.4169466;7.6255326;8.580975501885835;
0;06:57:44:363;-1.4951789;-0.8834604;10.222044;10.368521632553339;
0;06:57:44:373;4.3622355;-4.176685;16.469713;17.542099368209627;
0;06:57:44:384;-1.7956513;1.5897499;3.4272997;4.183067367022183;
0;06:57:44:395;1.5167267;-3.4476504;18.2917;18.675467096944658;
0;06:57:44:404;-0.5363012;-2.315193;11.931504;12.165875622538886;
0;06:57:44:415;1.5035586;-1.3431472;15.544354;15.674555206072137;
0;06:57:44:426;5.029021;2.4947581;10.09156;11.547920231362957;
0;06:57:44:437;6.791153;3.7241807;9.655815;12.378370038086787;
0;06:57:44:448;0.6655881;6.0561333;11.106702;12.668013919322801;
0;06:57:44:459;6.0884547;-5.3103395;16.596605;18.458501512207643;
0;06:57:44:470;0.58538234;-2.0518308;13.086706;13.259508284115345;
0;06:57:44:480;5.389348;5.3247046;9.931149;12.49100750759071;
0;06:57:44:490;0.29807812;-0.059855044;6.625953;6.6329246484555995;
0;06:57:44:500;-1.5131354;-1.5263035;12.436681;12.621023023826902;
0;06:57:44:510;0.074220255;-1.7896658;11.263522;11.40505799636243;
0;06:57:44:520;5.543774;0.91937345;9.307459;10.87232605079901;
0;06:57:44:531;-1.6244658;0.34476504;9.7563715;9.896693099301292;
0;06:57:44:541;-5.2049947;3.539827;7.477092;9.773906644665315;
0;06:57:44:551;2.432509;-1.2521675;15.223532;15.467415307002552;
0;06:57:44:561;3.3530796;-2.2780828;14.216769;14.783414073380989;
0;06:57:44:572;-0.046686932;2.1751323;7.7344685;8.034636381000844;
0;06:57:44:583;4.663905;3.1316159;6.8222775;8.837561932768978;
0;06:57:44:594;-1.3754689;-1.1528081;14.744691;14.853511387450085;
0;06:57:44:603;-6.731298;-2.1811178;9.676167;11.987320240888586;
0;06:57:44:613;4.783615;3.3147724;7.642292;9.60600407719332;
0;06:57:44:623;2.4911668;0.7541735;11.9746;12.254212569888276;
0;06:57:44:633;0.7565677;1.365892;11.737574;11.840974588234651;
0;06:57:44:643;0.8798691;-1.9656396;10.359711;10.581186952983318;
0;06:57:44:653;-4.5681367;-4.7285485;10.466252;12.3599947497903;
0;06:57:44:664;-3.5996823;2.6803088;7.8853035;9.073024768090452;
0;06:57:44:674;-1.8064252;-0.095768064;16.105795;16.20706561441886;
0;06:57:44:685;-3.0933087;-1.9740193;11.900379;12.453286125643642;
0;06:57:44:695;-5.675455;-1.0893618;9.838972;11.410647696751267;
0;06:57:44:706;-3.2369606;-0.027533319;5.3761797;6.275506425460506;
0;06:57:44:716;1.4089876;-2.348712;13.8959465;14.163298681487149;
0;06:57:44:727;-7.291541;1.3275849;4.644751;8.746586160909573;
0;06:57:44:737;-1.6879122;-2.0147207;12.398374;12.67390261984001;
0;06:57:44:747;-4.8482585;-3.2992098;9.19134;10.90280385483352;
0;06:57:44:757;-5.3761797;3.2752678;6.3182983;8.919169374803115;
0;06:57:44:768;-5.1475334;0.94810385;5.7137623;7.748747201381522;
0;06:57:44:779;-8.136695;0.19632454;9.421184;12.450022158928574;
0;06:57:44:789;-5.2385135;-2.3427265;12.570756;13.818621491551095;
0;06:57:44:799;-5.473145;2.0566192;8.412027;10.244374289816033;
0;06:57:44:810;-9.3421755;0.2908955;7.6506715;12.078644221941234;
0;06:57:44:820;-11.708843;-5.2444987;11.174936;17.01414081136124;
0;06:57:44:830;-7.529764;1.4041992;6.861782;10.28363621624788;
0;06:57:44:841;-6.8103065;-3.8031895;13.717579;15.78025648558909;
0;06:57:44:851;-9.38168;-2.3870192;7.466318;12.225369974790448;
0;06:57:44:861;-4.1718965;-2.2421699;13.050794;13.8836324145894;
0;06:57:44:872;-11.963826;-4.3538556;8.850166;15.505310133434428;
0;06:57:44:882;-10.976217;-4.128801;9.872491;15.329397663941588;
0;06:57:44:892;-3.3363202;2.1691468;12.94066;13.538719318176561;
0;06:57:44:902;-10.263943;-1.9141643;7.289147;12.73358593701828;
0;06:57:44:912;-10.414778;-3.5936968;5.875371;12.486081728808143;
0;06:57:44:922;-15.427038;-3.169923;9.127894;18.20330689957399;
0;06:57:44:933;-2.7748797;-0.59974754;9.66659;10.07485033402133;
0;06:57:44:943;-9.803059;-0.40940848;7.350199;12.259404523368095;
0;06:57:44:953;-3.9456444;0.8331822;12.088325;12.743229283746134;
0;06:57:44:963;-9.672575;1.2066777;8.783129;13.120904192587288;
0;06:57:44:973;-13.939042;-2.4947581;11.592725;18.300600736169496;
0;06:57:44:983;-14.513651;-3.2716765;10.078392;17.97008401977393;
0;06:57:44:993;-4.1240125;-1.0534488;9.957485;10.829069462440588;
0;06:57:45:003;-7.517793;0.82121116;11.225215;13.535030550462498;
0;06:57:45:014;-11.638214;-3.3267434;12.25113;17.222236737207567;
0;06:57:45:024;-8.941146;-1.2952632;7.8146744;11.945331022099767;
0;06:57:45:034;-2.2385786;-0.82719666;8.477868;8.807368089617672;
0;06:57:45:044;-8.240842;-1.3790601;8.842984;12.166004180290411;
0;06:57:45:055;-8.207323;-2.5234885;11.001357;13.955572206307728;
0;06:57:45:066;-11.672931;-0.59735334;12.376825;17.0235109997266;
0;06:57:45:077;-12.692861;-0.62368953;9.046491;15.599253201337977;
0;06:57:45:088;-9.374496;-3.0310593;6.7360864;11.934964375053202;
0;06:57:45:098;-3.8295257;0.09696517;7.013814;7.991761734138123;
0;06:57:45:108;-5.946;1.6927006;10.949882;12.574579760466898;
0;06:57:45:118;-6.2512608;-2.1260512;10.323798;12.254761062589996;
0;06:57:45:128;-10.0029745;-3.0418332;7.6387005;12.948435708790754;
0;06:57:45:138;-4.5765166;1.9428947;9.765948;10.958699460796902;
0;06:57:45:149;-11.4837885;-2.9520507;15.75265;19.71643923415734;
0;06:57:45:158;-9.057265;0.17597382;8.327033;12.304654017811588;
0;06:57:45:169;-9.5492735;-0.10414778;5.48751;11.014183610262993;
0;06:57:45:179;-11.160571;-6.244078;7.4711065;14.810951634857165;
0;06:57:45:189;-9.334992;-0.79607207;8.1163435;12.395597943974783;
0;06:57:45:199;-6.453571;-0.7386112;10.45907;12.312037735215052;
0;06:57:45:209;-7.177817;-1.6196774;6.7133417;9.960590527045118;
0;06:57:45:219;-6.4858923;-2.4540567;11.382035;13.328162780207299;
0;06:57:45:229;-10.292673;0.6464345;6.4846954;12.182293058376008;
0;06:57:45:240;-7.4615297;-2.5677812;8.542512;11.629377955876445;
0;06:57:45:250;-5.106832;0.37469256;11.563994;12.646979508888364;
0;06:57:45:261;1.5885528;0.59136784;17.939753;18.0196544577676;
0;06:57:45:271;-3.903746;2.873042;10.746374;11.788900062043599;
0;06:57:45:281;-10.729615;-3.2872388;5.9986725;12.72456845374272;
0;06:57:45:291;-7.8206596;0.5327099;10.448297;13.061906572943801;
0;06:57:45:301;-7.4268136;0.92655605;7.3777328;10.509377061728538;
0;06:57:45:312;-2.5893292;-0.9983821;10.866084;11.214864158811107;
0;06:57:45:322;-5.8478374;2.267309;8.954314;10.932412321173961;
0;06:57:45:332;-1.7609353;-1.9680338;16.06629;16.28188353493884;
0;06:57:45:342;-0.6344634;-1.1001357;12.85806;12.920624419910618;
0;06:57:45:352;-2.0721815;-1.1049241;7.7189064;8.068228645530722;
0;06:57:45:363;-2.4301147;0.6619968;12.392388;12.645750008842212;
0;06:57:45:372;-5.080496;0.8343793;7.9511437;9.472503220413397;
0;06:57:45:382;-3.8893807;2.268506;7.2029557;8.494467337143446;
0;06:57:45:392;-0.7314286;-2.2409728;5.3282957;5.8264638870417755;
0;06:57:45:402;1.3958195;5.6946087;7.0832458;9.195066904111886;
0;06:57:45:413;6.1890116;-4.8494554;11.584345;14.000647393653132;
0;06:57:45:423;-7.9236107;-0.91817635;7.055712;10.649400405840051;
0;06:57:45:433;6.0884547;0.049081136;11.040861;12.60842199872179;
0;06:57:45:443;-0.45729253;0.7278373;7.825448;7.872515574125195;
0;06:57:45:453;5.8119245;0.6703765;9.903615;11.502585079058383;
0;06:57:45:464;9.024943;-0.9768343;10.739192;14.06179414461148;
0;06:57:45:474;-4.876989;-4.036624;8.798691;10.839571716744228;
0;06:57:45:485;-4.489128;-1.7477672;7.3178773;8.761180600949904;
0;06:57:45:494;-0.39624038;3.550601;9.114726;9.789892893625156;
0;06:57:45:505;3.8139634;-2.9364884;13.645753;14.469825655210483;
0;06:57:45:515;0.8643068;3.6415808;6.337452;7.360124489104596;
0;06:57:45:526;2.018312;0.24301147;9.593566;9.806586749565712;
0;06:57:45:536;1.1695676;-1.2509704;7.9547353;8.136991132772865;
0;06:57:45:546;4.1515455;0.36152446;12.532449;13.207130610022576;
0;06:57:45:556;6.1902084;-0.08140286;10.040085;11.795279408857079;
0;06:57:45:567;-1.292869;-0.31603462;7.9451585;8.055862888597522;
0;06:57:45:576;-1.9740193;-2.304419;11.297041;11.697445478090104;
0;06:57:45:586;-0.51954174;1.436521;10.849325;10.956339452871244;
0;06:57:45:596;1.0773908;1.5717934;11.767501;11.920795996797597;
0;06:57:45:606;5.9148755;-2.111686;7.6255326;9.878953359664266;
0;06:57:45:617;-1.1300632;3.514688;4.280833;5.652928847351845;
0;06:57:45:627;4.3718123;-0.9576807;9.646238;10.633898789568992;
0;06:57:45:637;5.9160724;-0.37708676;6.5241995;8.815173453768198;
0;06:57:45:647;9.41879;-2.9125464;10.2735195;14.238740454700624;
0;06:57:45:657;1.6304513;1.4748282;8.512584;8.791903620655901;
0;06:57:45:667;-0.22266077;-4.3023806;13.814544;14.470717755636079;
0;06:57:45:677;9.027337;0.0035913025;6.5505357;11.15357986253741;
0;06:57:45:687;6.5457473;-1.3479356;17.301699;18.547574294420045;
0;06:57:45:697;-4.050989;-2.6120741;7.1634517;8.634146443178162;
0;06:57:45:707;6.113594;-1.0187328;10.9834;12.61146046009436;
0;06:57:45:718;4.1383777;0.45848963;11.385626;12.123071261504794;
0;06:57:45:728;7.880515;-0.45848963;7.5944076;10.95389257073356;
0;06:57:45:738;5.8634;-0.45250413;8.956709;10.714796043231381;
0;06:57:45:748;0.062249243;-0.439336;6.283582;6.299229941156498;
0;06:57:45:758;6.7923503;0.25617957;7.5525093;10.16080952340405;
0;06:57:45:769;1.6196774;-0.6715736;10.377667;10.524749288948161;
0;06:57:45:779;4.584896;-4.7536874;20.46803;21.507186753065824;
0;06:57:45:789;-3.1842883;-2.825158;11.27669;12.053420370457223;
0;06:57:45:799;1.4616601;1.5263035;5.1223946;5.5412073542569305;
0;06:57:45:809;3.477578;1.3359646;10.554838;11.192987044769373;
0;06:57:45:820;-0.6823475;0.6943185;6.8809357;6.949456985447002;
0;06:57:45:830;9.118318;2.742558;11.326968;14.797484436697234;
0;06:57:45:840;-2.099715;-2.504335;11.678916;12.127554398294562;
0;06:57:45:851;-1.7106571;-2.3247697;13.772645;14.071838804465719;
0;06:57:45:861;1.4257472;-0.34835634;13.041217;13.123545538830793;
0;06:57:45:871;-1.0977415;-0.8535329;11.534067;11.61758350346409;
0;06:57:45:881;-2.6731262;-0.4285621;10.457873;10.802609898317831;
0;06:57:45:891;4.0761285;1.5514427;8.558074;9.605333324965429;
0;06:57:45:901;5.521029;-0.107739076;7.2687964;9.12845953589844;
0;06:57:45:911;-4.7979803;-5.697003;11.215638;13.463543303715245;
0;06:57:45:921;8.244433;-0.48482585;10.940305;13.707516043899055;
0;06:57:45:931;-4.8626237;-1.0007763;8.003817;9.418478687330104;
0;06:57:45:941;-6.7839704;0.9660604;7.2304893;9.961701870182154;
0;06:57:45:951;0.20829555;0.046686932;6.7001734;6.703572860730395;
0;06:57:45:962;6.0836663;0.50637364;13.864822;15.14928107743354;
0;06:57:45:972;-1.5717934;-0.8774749;11.403583;11.544790861896194;
0;06:57:45:982;-2.9759927;2.1188686;5.4539914;6.564461841707988;
0;06:57:45:992;-0.5422867;0.8643068;8.081628;8.145784525875467;
0;06:57:46:002;0.5590461;-1.4915876;8.3868885;8.536818255660348;
0;06:57:46:012;1.7585411;-1.5382746;14.478935;14.66623085992849;
0;06:57:46:022;2.408567;-3.728969;12.504915;13.26948812824168;
0;06:57:46:032;-11.255142;1.1216835;7.7009497;13.683604343594244;
0;06:57:46:042;-0.09816227;-3.1471782;16.657658;16.952638061843334;
0;06:57:46:052;-0.91219085;2.3786395;6.927623;7.381190659739113;
0;06:57:46:062;2.244564;2.0853498;10.192117;10.642649633006693;
0;06:57:46:073;-5.6527104;-0.50876784;9.369708;10.954606460752524;
0;06:57:46:083;-0.50876784;0.88944596;9.088389;9.145970742504806;
0;06:57:46:094;-9.7803135;-2.6312277;11.700463;15.475100791491988;
0;06:57:46:103;-4.4196963;1.3359646;8.763975;9.905845657905346;
0;06:57:46:113;-0.89303726;-2.0566192;13.0280485;13.219577628124721;
0;06:57:46:124;-10.658986;-0.7038953;8.977059;13.953388549092766;
0;06:57:46:134;-6.221333;-1.0582372;5.639542;8.463408752962755;
0;06:57:46:145;-0.22146365;0.61291564;5.6323595;5.669937012875934;
0;06:57:46:154;-6.1758432;0.7529764;12.908339;14.329452935668789;
0;06:57:46:164;-5.427655;-3.2489316;10.30225;12.089307338665476;
0;06:57:46:175;-10.372879;-2.0817583;7.0724716;12.72596539805527;
0;06:57:46:185;-0.35194764;0.4237737;13.718776;13.729830844001059;
0;06:57:46:195;-2.8646624;-0.5530606;5.457583;6.188487580987705;
0;06:57:46:205;0.22146365;-0.7529764;12.210428;12.23562713100814;
0;06:57:46:215;-9.36492;1.3347675;11.027693;14.529050992886846;
0;06:57:46:226;-0.029927522;0.16759412;9.445126;9.446659720917891;
0;06:57:46:235;-2.4157495;-4.280833;12.473791;13.407342612818544;
0;06:57:46:245;2.980781;1.0067618;11.702858;12.118395078044705;
0;06:57:46:255;4.1060557;-5.7808;18.909405;20.195121342180407;
0;06:57:46:265;0.18076223;2.078167;11.559206;11.745922923391998;
0;06:57:46:276;-7.884106;9.157822;-6.613982;13.775688450496993;
0;06:57:46:286;-3.2477345;-1.1695676;8.773552;9.428196243153515;
0;06:57:46:297;-2.706645;0.29209262;7.1526775;7.653237509221741;
0;06:57:46:307;4.703409;1.103727;15.944186;16.660052296715545;
0;06:57:46:317;-1.22224;-6.757634;11.489774;13.3856039348322;
0;06:57:46:327;2.7736826;-4.1934443;17.832014;18.527250273193452;
0;06:57:46:337;-1.0223241;0.2861071;13.375208;13.417271634001674;
0;06:57:46:348;-0.17717093;-0.842759;10.07121;10.107962130790757;
0;06:57:46:358;-5.9412117;1.2425907;4.8338933;7.759417073093119;
0;06:57:46:368;2.7629087;3.0454245;11.693281;12.395204638184113;
0;06:57:46:378;1.4077905;0.736217;5.911284;6.121043270173152;
0;06:57:46:388;2.670732;-2.742558;14.099454;14.609895127773205;
0;06:57:46:399;0.20350714;-3.4835634;16.308105;16.677258495560185;
0;06:57:46:408;-7.117962;-1.827973;6.5948286;9.874139289527182;
0;06:57:46:418;0.4345476;2.2744915;5.6790466;6.133002211436768;
0;06:57:46:429;-1.7046716;0.47046062;5.2085857;5.5006004352539035;
0;06:57:46:439;3.9588125;-2.256535;13.377602;14.132387103188725;
0;06:57:46:449;2.2421699;-1.6065093;11.207258;11.541699644700365;
0;06:57:46:459;-0.724246;0.7302315;8.750807;8.811038065101522;
0;06:57:46:469;4.027047;-0.81043726;9.442732;10.29752886118668;
0;06:57:46:479;-5.840655;-1.2509704;8.274361;10.205058500280174;
0;06:57:46:489;1.1587936;1.2545617;10.09156;10.235053352995864;
0;06:57:46:500;-1.2749124;-1.7106571;11.4598465;11.656750052109025;
0;06:57:46:510;1.8447324;-0.4333505;9.490616;9.677945057936297;
0;06:57:46:521;3.4847605;0.641646;10.485406;11.067927004579987;
0;06:57:46:531;3.0753522;1.0283096;13.936648;14.308926465214435;
0;06:57:46:542;2.6036944;-1.8794483;9.045294;9.598379602370962;
0;06:57:46:551;-6.5385647;-0.19273324;6.203377;9.015090582758003;
0;06:57:46:561;0.39983168;1.5191209;10.876859;10.989706251472436;
0;06:57:46:571;-0.38187516;-1.6998832;8.276755;8.458138549766774;
0;06:57:46:581;8.759187;-1.2006922;11.801021;14.74547701524866;
0;06:57:46:591;-0.39863458;-1.3718776;15.048755;15.116413800452918;
0;06:57:46:601;-6.215348;0.32920274;6.683414;9.132740239101425;
0;06:57:46:612;0.7015011;-1.7106571;8.829816;9.021313332230582;
0;06:57:46:622;-1.4664485;3.1411927;6.1303535;7.042641325843765;
0;06:57:46:632;3.5003228;-3.630807;12.885593;13.837396476930392;
0;06:57:46:642;1.4808137;0.33997664;7.4136457;7.567730064562169;
0;06:57:46:652;2.6431987;-0.24061728;10.670957;10.996077098122383;
0;06:57:46:663;0.9528923;0.7170634;5.5725045;5.6986832553429885;
0;06:57:46:673;4.823119;-1.400608;14.300567;15.156859584229666;
0;06:57:46:683;-1.9093759;-3.787627;13.595474;14.24179590537484;
0;06:57:46:693;-2.2840683;-1.899799;6.0645127;6.753112075560284;
0;06:57:46:703;0.32441434;0.51595044;10.409989;10.427815404313854;
0;06:57:46:713;-0.6464345;4.642357;11.221623;12.16117574729683;
0;06:57:46:723;3.3255463;-4.3538556;14.058752;15.08853318312168;
0;06:57:46:733;-1.5849615;0.2813187;7.823054;7.986952871290333;
0;06:57:46:744;0.62009823;-0.30765492;11.004948;11.026696840527114;
0;06:57:46:754;-1.8866309;0.82599956;4.983531;5.392330883842334;
0;06:57:46:764;1.7872716;-0.7577648;13.231556;13.373205331916854;
0;06:57:46:774;-0.50038815;-1.3503298;16.675615;16.737680032230514;
0;06:57:46:784;-1.685518;-0.35553896;10.2735195;10.416937211655931;
0;06:57:46:795;0.50038815;2.303222;8.7053175;9.018745821015361;
0;06:57:46:805;-3.9360676;1.9812019;6.8103065;8.111600654959961;
0;06:57:46:816;1.7645266;-3.726575;16.970102;17.463828060518225;
0;06:57:46:826;4.11683;1.2437878;9.173384;10.131449587889836;
0;06:57:46:836;3.3901896;0.22984336;12.860455;13.3017861679847;
0;06:57:46:846;3.7924154;-1.2904748;6.6606693;7.772532286725695;
0;06:57:46:856;2.244564;-0.7505822;6.411672;6.834543105553577;
0;06:57:46:866;5.7065797;-0.32680854;9.707291;11.265138739939163;
0;06:57:46:876;0.51235914;-1.5705963;8.052897;8.220611013456987;
0;06:57:46:886;1.910573;-1.1180922;10.163386;10.401674840021633;
0;06:57:46:896;6.205771;-0.19393034;7.0605006;9.402120602617893;
0;06:57:46:906;7.6734166;-0.842759;15.05474;16.918532896533723;
0;06:57:46:916;3.7792473;-2.2697031;11.265916;12.097731927838852;
0;06:57:46:926;6.611588;0.61411273;11.775881;13.518934746483819;
0;06:57:46:936;3.891775;-1.863886;14.762648;15.380368667767536;
0;06:57:46:946;9.281123;-0.7433996;8.14268;12.369119499281265;
0;06:57:46:956;9.218874;-2.0099323;9.674969;13.514158383215753;
0;06:57:46:967;3.2345665;1.1121067;9.43076;10.03187136047727;
0;06:57:46:977;2.5115175;-0.50517654;10.538078;10.844999477725898;
0;06:57:46:987;11.5077305;-0.48482585;8.760384;14.4709101932563;
0;06:57:46:997;3.9959226;-1.1504139;12.393585;13.072559042771918;
0;06:57:47:007;13.478158;-0.1388637;10.16578;16.882627218731113;
0;06:57:47:018;6.093243;-1.8100165;8.804677;10.85937921537688;
0;06:57:47:028;6.18542;-1.0103531;7.4004774;9.697798835101384;
0;06:57:47:039;11.501745;-0.30885202;11.212047;16.065351537377925;
0;06:57:47:048;3.1004913;-2.3630772;11.261127;11.916801683065621;
0;06:57:47:059;7.3178773;-0.16998832;7.735666;10.649917645203148;
0;06:57:47:068;9.404425;-2.2254105;10.147824;14.013350524407853;
0;06:57:47:078;8.192958;0.4213795;12.026075;14.557768351803295;
0;06:57:47:089;11.076775;-4.4208937;6.611588;13.636433974575931;
0;06:57:47:099;3.6092591;0.9780314;7.062895;7.991732139703722;
0;06:57:47:109;9.0429;-3.6846764;10.891224;14.62770094750934;
0;06:57:47:119;8.5700445;-0.9636662;9.012972;12.474292412453952;
0;06:57:47:129;8.754398;-1.5298948;11.379641;14.438707969960362;
0;06:57:47:140;8.686164;-0.21547815;12.366052;15.113407957759105;
0;06:57:47:150;7.0784574;-1.352724;9.340978;11.79780819467083;
0;06:57:47:161;7.8984714;-2.208651;10.250774;13.127923549022686;
0;06:57:47:171;9.163807;0.06464344;9.874885;13.471929683764568;
0;06:57:47:181;6.397307;-2.6683378;8.950723;11.320821999403908;
0;06:57:47:191;11.559206;0.45968673;8.494628;14.352187124914261;
0;06:57:47:201;4.546589;-2.1140802;6.5361705;8.237859404947597;
0;06:57:47:211;9.765948;-1.1444284;7.715315;12.498381853271859;
0;06:57:47:221;8.574833;-3.4608185;13.860034;16.661499341377844;
0;06:57:47:232;4.3897686;-3.716998;10.7751045;12.214295963292614;
0;06:57:47:242;-0.80684596;-4.547786;7.562086;8.861067030055287;
0;06:57:47:252;0.65242;-0.35194764;13.229161;13.249914205021469;
0;06:57:47:262;11.2132435;0.088585466;5.0876784;12.313778883455111;
0;06:57:47:272;9.339781;-1.0965444;11.592725;14.92732997068501;
0;06:57:47:283;8.583213;-0.62488663;10.070012;13.246401892058746;
0;06:57:47:293;6.5002575;-2.8670566;5.177461;8.790873945273;
0;06:57:47:303;4.092888;1.6184803;11.1414175;11.97924854195299;
0;06:57:47:313;10.691308;-1.9536686;16.101006;19.42583976904015;
0;06:57:47:323;5.9029045;-4.8781857;8.708909;11.596812869301028;
0;06:57:47:334;9.197326;-4.656722;14.487314;17.7808363720564;
0;06:57:47:344;5.129577;-1.9680338;10.534488;11.881125707242099;
0;06:57:47:354;6.2225304;-1.0498575;7.097611;9.497271497306723;
0;06:57:47:364;2.837129;0.8762778;7.669825;8.224559514735471;
0;06:57:47:374;-2.7353754;-0.7625532;7.884106;8.379910524022616;
0;06:57:47:385;2.8072014;2.018312;7.845799;8.57382767117806;
0;06:57:47:395;3.606865;0.724246;8.324639;9.101298027943983;
0;06:57:47:406;8.063671;-1.6328455;8.571242;11.880873984096311;
0;06:57:47:415;7.735666;4.38498;16.827646;19.03255765083668;
0;06:57:47:425;2.6527755;-4.35625;20.262129;20.89420956064293;
0;06:57:47:435;1.282095;1.1228806;10.924743;11.05688161474475;
0;06:57:47:445;-1.3479356;-1.7645266;10.530896;10.762446805000652;
0;06:57:47:456;1.9883845;-0.25258827;3.417723;3.9621084314612403;
0;06:57:47:466;0.4249708;0.65242;8.553286;8.588652163400653;
0;06:57:47:477;2.1308396;-2.505532;9.672575;10.216500224198827;
0;06:57:47:487;-7.2867527;-1.7226281;8.310274;11.185922522121206;
0;06:57:47:498;1.5035586;1.6819267;8.228871;8.532519794466857;
0;06:57:47:509;5.5485625;-2.694674;11.820174;13.332829529462932;
0;06:57:47:518;3.2333694;1.4401124;9.794679;10.414621096351341;
0;06:57:47:529;-0.7386112;-1.8483237;7.5644803;7.821969602700855;
0;06:57:47:539;9.629479;1.0785879;10.879252;14.568745726752912;
0;06:57:47:549;-0.79367787;0.30166942;7.4148426;7.463298260343851;
0;06:57:47:559;0.7433996;1.7944542;10.724827;10.89929432115762;
0;06:57:47:569;-4.6926355;-2.6779146;13.789405;14.810123301217503;
0;06:57:47:580;2.528277;-2.0207062;15.084668;15.42798250073446;
0;06:57:47:589;0.10414778;0.33039984;12.531252;12.536039355188853;
0;06:57:47:599;-2.2230163;0.7721301;8.271967;8.600199107149624;
0;06:57:47:610;0.7457938;-2.8993783;10.2495775;10.67784816080538;
0;06:57:47:619;-3.6703112;2.1775265;8.457518;9.47324700155345;
0;06:57:47:630;-6.659472;-4.284424;10.5285015;13.173997085879062;
0;06:57:47:640;-5.8945246;0.82240826;11.789049;13.206189548193397;
0;06:57:47:650;3.4859576;-3.13401;11.444284;12.367116555584575;
0;06:57:47:661;-2.1284454;0.022744916;9.190144;9.433426742181107;
0;06:57:47:670;-2.8933928;-2.4959552;10.745177;11.404400401193488;
0;06:57:47:681;-5.2241483;-2.078167;7.9272017;9.718592210083642;
0;06:57:47:692;-1.7884687;0.023942016;7.9068513;8.106632540697916;
0;06:57:47:702;-6.2129536;-0.108936176;7.751228;9.934495003723335;
0;06:57:47:712;-3.5110967;-0.2837129;11.969811;12.477366594118466;
0;06:57:47:723;-3.2680852;0.08020575;9.657013;10.195327840625431;
0;06:57:47:733;-7.5549035;-2.9221232;11.741165;14.264302889172765;
0;06:57:47:744;-6.5230026;-1.3670892;12.291832;13.982404278039283;
0;06:57:47:755;-4.6471453;1.0582372;10.169372;11.230847819689457;
0;06:57:47:765;-0.25139117;0.676362;12.952631;12.972713884996931;
0;06:57:47:776;-2.8431146;-1.1683705;8.367735;8.914447639028701;
0;06:57:47:786;-4.554969;-2.956839;10.709264;12.0074547817976;
0;06:57:47:797;-8.231265;-2.3882163;12.283452;14.978000020668334;
0;06:57:47:807;-5.9519854;-2.3750482;7.787141;10.08496618580102;
0;06:57:47:818;-8.413225;-1.0929531;10.617087;13.590417492918895;
0;06:57:47:828;-1.198298;-0.51714754;12.838906;12.905071213949553;
0;06:57:47:839;-5.529409;1.2018893;11.942278;13.215025609338362;
0;06:57:47:849;-3.8534677;-2.2888567;11.877635;12.695128604437338;
0;06:57:47:860;-6.4308257;-0.22864626;10.117896;11.99081387185917;
0;06:57:47:870;-1.1085154;-0.15801731;7.1407065;7.227964127164992;
0;06:57:47:881;-4.6519337;-2.0159178;9.406818;10.68609609919865;
0;06:57:47:891;-5.436035;1.0773908;8.304289;9.983609691057584;
0;06:57:47:901;-4.6519337;-0.93254155;11.245565;12.205443646760974;
0;06:57:47:912;4.519056;0.32800564;9.355343;10.394801351714307;
0;06:57:47:922;-4.509479;-1.8854338;12.067974;13.020225050895878;
0;06:57:47:933;-6.2165446;-2.0458453;14.241909;15.673636218646045;
0;06:57:47:943;-4.817134;2.7281928;8.397662;10.058257731037934;
0;06:57:47:953;-3.4715924;-0.47285482;10.758346;11.314483974420657;
0;06:57:47:963;-8.469488;-4.3526587;13.044808;16.15069378286793;
0;06:57:47:973;-4.7058034;-1.9608512;8.324639;9.761615583188334;
0;06:57:47:983;4.0677485;-0.01436521;13.468581;14.069451406882395;
0;06:57:47:993;-2.846706;2.098518;10.720038;11.288345092364798;
0;06:57:48:004;-5.8681884;1.0737995;12.212823;13.591972989096474;
0;06:57:48:014;-7.5764513;-1.8543092;12.175713;14.459911835587683;
0;06:57:48:025;-0.6823475;-1.7705121;13.681665;13.81261323217869;
0;06:57:48:035;-3.4225113;-3.0298622;14.428657;15.135381493349243;
0;06:57:48:045;-8.817844;-1.163582;7.656657;11.735957418685667;
0;06:57:48:055;-2.9628246;-1.1719618;11.007342;11.459205917887797;
0;06:57:48:065;-3.7193923;2.7509377;10.363302;11.34899007866621;
0;06:57:48:075;-4.3155484;-0.7158663;10.891224;11.736915607956004;
0;06:57:48:086;-2.9113493;1.246182;7.1251445;7.797217963555425;
0;06:57:48:098;2.7928362;0.7398083;13.204022;13.516414129780664;
0;06:57:48:108;-9.094376;-3.2489316;11.599907;15.093742923458485;
0;06:57:48:118;-6.8091097;-1.2114661;12.492945;14.279541447647334;
0;06:57:48:129;-6.137536;-0.439336;9.3733;11.212542418332703;
0;06:57:48:139;3.1280246;-0.077811554;13.863625;14.21234241354615;
0;06:57:48:150;-3.776853;1.4616601;7.0928226;8.167569895510345;
0;06:57:48:161;-7.577648;-1.9488802;4.0342298;8.803061767611029;
0;06:57:48:172;2.4049757;-0.8499416;12.789825;13.041699946709402;
0;06:57:48:182;4.209007;-1.2677298;15.805323;16.40521574120941;
0;06:57:48:192;-4.892551;-2.4959552;7.4842744;9.283383724639753;
0;06:57:48:203;-7.3849154;-0.7206547;6.6295447;9.950235519305481;
0;06:57:48:213;0.04070143;1.3239936;8.084022;8.191826296156814;
0;06:57:48:223;-3.7134068;-1.8255788;11.585542;12.302313138972522;
0;06:57:48:234;-1.8076223;0.46447513;7.57286;7.799451260949313;
0;06:57:48:244;-4.710592;-3.9995139;10.177752;11.906821570106095;
0;06:57:48:255;-0.9995792;-2.6001031;13.6673;13.948289466910786;
0;06:57:48:265;-2.837129;1.6879122;10.117896;10.64284569510176;
0;06:57:48:276;-2.9017725;0.22744916;6.1638722;6.8165486755356826;
0;06:57:48:285;-0.63087213;-1.3443443;11.429919;11.525984225996915;
0;06:57:48:296;-3.6643257;1.9428947;11.858481;12.562869849383103;
0;06:57:48:306;-3.4823663;-2.4791958;14.670471;15.280576476561828;
0;06:57:48:316;-3.027468;-1.0055647;7.741651;8.37316464483015;
0;06:57:48:327;-0.08259996;0.2765303;10.229227;10.23329736991138;
0;06:57:48:338;-2.2062569;-1.4939818;11.864467;12.15997994672226;
0;06:57:48:349;-5.21936;1.8076223;14.454992;15.474366680737596;
0;06:57:48:359;-3.2369606;-2.9975405;9.107543;10.119807666262657;
0;06:57:48:369;-0.8355764;-2.8048072;12.284649;12.628448921699322;
0;06:57:48:379;-4.936844;0.35673606;7.2604165;8.78711176268305;
0;06:57:48:389;-6.409278;-2.3582888;5.3223104;8.65836944523594;
0;06:57:48:400;-4.1479545;-0.6823475;8.403648;9.396405413368605;
0;06:57:48:409;-0.019153614;-0.6871359;14.296975;14.313490920766576;
0;06:57:48:420;-4.936844;-0.022744916;11.596316;12.60347128386939;
0;06:57:48:430;-4.477157;-2.0362685;10.976217;12.027829008357946;
0;06:57:48:440;0.85473;2.4552538;9.276335;9.633754167527401;
0;06:57:48:451;-1.1575965;0.095768064;13.202826;13.253822207219544;
0;06:57:48:461;-3.5924997;1.4987702;7.327454;8.297225341296802;
0;06:57:48:472;-5.7161565;-0.39624038;10.612299;12.060361998836052;
0;06:57:48:483;-3.3171666;-2.0841527;8.89805;9.722272522811346;
0;06:57:48:493;-2.8790276;-0.7098808;10.113108;10.53886523108094;
0;06:57:48:504;-6.090849;-0.5303157;3.83192;7.21548929925315;
0;06:57:48:514;-5.590461;-1.1707647;9.39365;10.993844130450842;
0;06:57:48:525;0.017956512;-3.0478187;13.763068;14.096508897963055;
0;06:57:48:535;0.017956512;-3.0478187;13.763068;14.096508897963055;
0;06:57:48:545;-6.743269;-1.0833763;10.335769;12.388442011948008;
0;06:57:48:555;-6.4547677;-0.48722005;11.398794;13.108543906164549;
0;06:57:48:565;-3.7924154;0.9876082;8.799889;9.633058815534902;
0;06:57:48:576;-2.6563668;-0.0035913025;10.224439;10.56387446562983;
0;06:57:48:587;-3.8905778;-2.7353754;12.322956;13.208865246256016;
0;06:57:48:598;-4.119224;-2.6779146;7.326257;8.821183491926817;
0;06:57:48:609;0.47644615;-1.6915035;13.226768;13.342996401802544;
0;06:57:48:619;-1.6424223;1.3156139;9.563639;9.79242455545696;
0;06:57:48:630;-7.290344;-1.0139444;8.785523;11.46135354668332;
0;06:57:48:640;-5.21098;1.1611878;8.632295;10.149836466557062;
0;06:57:48:651;-3.787627;0.3854665;12.615048;13.177031352828964;
0;06:57:48:661;-5.535394;-3.8043866;11.44189;13.267659636738053;
0;06:57:48:671;-7.457938;-0.9540894;8.821436;11.590895638143582;
0;06:57:48:681;-1.1288661;0.24301147;10.759542;10.821328500359616;
0;06:57:48:692;-1.7717092;0.61770403;9.65821;9.83877680053085;
0;06:57:48:702;-1.2354081;0.32800564;8.6574335;8.751284259826615;
0;06:57:48:712;-0.40342298;-1.9033904;9.095572;9.301348467452893;
0;06:57:48:723;0.59256494;-0.6404489;10.696096;10.731625489390284;
0;06:57:48:733;-3.2812533;1.3623008;7.2723875;8.093831536902279;
0;06:57:48:743;-7.669825;0.60453594;7.467515;10.721728386539484;
0;06:57:48:753;0.61411273;-1.5155296;10.226832;10.356740302921013;
0;06:57:48:763;2.4839842;0.81402856;11.162966;11.464930259469186;
0;06:57:48:773;-3.6631286;-2.6683378;13.069947;13.833367650246089;
0;06:57:48:784;-3.787627;0.6679823;4.643554;6.029503445906571;
0;06:57:48:793;-2.148796;1.520318;8.523358;8.920556286627567;
0;06:57:48:804;-2.6264393;1.5741876;9.458294;9.941608083658423;
0;06:57:48:814;-1.4784195;1.1049241;12.452243;12.588285637954613;
0;06:57:48:824;-2.1092918;-2.4720132;9.572019;10.10858556857811;
0;06:57:48:834;-4.2305546;-0.7254431;11.81778;12.573136870007943;
0;06:57:48:844;-3.489549;-1.2629414;9.831789;10.50885580903264;
0;06:57:48:855;-4.829105;1.6591818;7.3537903;8.952729594235493;
0;06:57:48:865;-5.6778493;-3.514688;10.516531;12.457464861926475;
0;06:57:48:876;0.37588966;-2.6084828;11.3880205;11.688990207260407;
0;06:57:48:886;-5.482722;-0.30406362;10.708067;12.033926371352486;
0;06:57:48:895;-5.717354;0.6607997;5.093664;7.68571439024874;
0;06:57:48:905;-9.317036;0.58418524;6.338649;11.28392170471268;
0;06:57:48:915;-3.8534677;2.328361;9.601946;10.605085671603543;
0;06:57:48:926;-2.5725696;1.0319009;10.143036;10.514947333754964;
0;06:57:48:936;-0.3196259;-4.4927197;13.016078;13.773343333129601;
0;06:57:48:947;-5.518635;-1.9919758;13.044808;14.303507149383362;
0;06:57:48:958;-2.6013002;0.91817635;9.507375;9.899494165926406;
0;06:57:48:969;-1.4041992;3.2130187;7.6243353;8.39200516756406;
0;06:57:48:979;-0.6907272;0.18794483;10.451887;10.476372064940534;
0;06:57:48:989;-1.0259154;-0.9744401;11.247959;11.336605123345183;
0;06:57:49:000;-2.6192567;0.80325466;14.4107;14.668810312076426;
0;06:57:49:010;-6.405687;-1.6519991;9.909601;11.914786094829687;
0;06:57:49:020;2.3570917;3.2812533;5.2289367;6.6078955615567505;
0;06:57:49:030;-4.498705;-2.6611552;11.019313;12.196120123602258;
0;06:57:49:040;2.505532;1.5861586;9.111135;9.581563858097324;
0;06:57:49:051;-0.22146365;-4.9548006;15.134946;15.92688544353982;
0;06:57:49:061;-2.670732;-2.0398598;9.7863;10.347245930780362;
0;06:57:49:071;-1.021127;-0.30166942;10.812215;10.86451549027286;
0;06:57:49:082;-0.5410896;2.2170308;6.4152637;6.809083134215803;
0;06:57:49:092;3.7325604;-0.81881696;11.286267;11.915632580970575;
0;06:57:49:102;-2.0254946;-1.9321208;15.398308;15.650674219202987;
0;06:57:49:113;-0.39264908;-1.8890251;9.762358;9.951191617068249;
0;06:57:49:124;-1.0378864;-2.086547;9.860519;10.132163068890563;
0;06:57:49:134;11.563994;2.529474;6.491878;13.500692279161154;
0;06:57:49:144;0.7015011;2.0518308;10.254366;10.48113226736296;
0;06:57:49:154;-1.1791444;-1.5131354;12.421119;12.568379255277595;
0;06:57:49:164;-5.6670756;-3.3315318;11.115082;12.913554417561127;
0;06:57:49:175;1.5969325;-1.5239093;11.812991;12.017456073906875;
0;06:57:49:185;0.760159;3.3063924;9.968259;10.529779620205622;
0;06:57:49:195;-2.7569232;1.7298107;7.6602483;8.322996926109685;
0;06:57:49:206;4.0019083;-0.9816227;11.814188;12.512149856957786;
0;06:57:49:215;2.123657;-4.560954;19.012356;19.666771236508055;
0;06:57:49:227;-3.5625722;0.93972415;7.5644803;8.414057512910546;
0;06:57:49:237;-4.1814733;-0.49320555;12.253524;12.956728591581227;
0;06:57:49:248;-0.10055647;2.3211784;11.473015;11.705897900387518;
0;06:57:49:258;7.2664022;1.5227122;6.397307;9.800244495689531;
0;06:57:49:269;7.171831;-2.4349031;11.344925;13.640792793211975;
0;06:57:49:279;-2.4516625;-0.5374983;12.563574;12.811828297941613;
0;06:57:49:289;4.080917;-2.1906946;13.868413;14.621419875971455;
0;06:57:49:299;-5.093664;0.2633622;6.455965;8.227652134330588;
0;06:57:49:309;0.61171854;-0.760159;6.692991;6.763739272422652;
0;06:57:49:320;5.04578;-0.6679823;8.583213;9.978859489879092;
0;06:57:49:330;1.8124107;-2.408567;12.913127;13.260274106698008;
0;06:57:49:340;-0.32202014;1.2533646;8.021772;8.12548169395446;
0;06:57:49:350;-4.1132383;-1.3084313;10.328587;11.19421389846949;
0;06:57:49:361;4.378995;0.89064306;8.423999;9.53585834098412;
0;06:57:49:372;-1.3587095;1.1216835;6.992266;7.210828521996125;
0;06:57:49:382;-0.9648633;-0.47405192;11.553221;11.603128839970413;
0;06:57:49:393;-1.4580688;-0.997185;12.299014;12.42522004391264;
0;06:57:49:403;2.861071;-0.5422867;13.621811;13.929591650855036;
0;06:57:49:414;-5.9519854;0.17118542;5.8442464;8.343299653547554;
0;06:57:49:424;-5.007473;-0.60453594;13.534422;14.443712095295894;
0;06:57:49:434;7.5106106;-0.41299978;16.482882;18.118091187304593;
0;06:57:49:445;2.268506;-3.654749;14.05995;14.703247977866415;
0;06:57:49:455;-5.2061915;0.7314286;8.536526;10.0255517669813;
0;06:57:49:466;0.60094464;1.7513585;5.378574;5.688360798848897;
0;06:57:49:476;-5.341464;2.7365725;2.7473464;6.600604648058441;
0;06:57:49:487;-0.30406362;-2.2349873;10.078392;10.327710580518847;
0;06:57:49:498;-2.8754363;-1.650802;11.525687;11.993112494863588;
0;06:57:49:508;-7.548918;-1.9620483;8.323442;11.406817194801755;
0;06:57:49:519;-8.892065;-6.233304;15.172056;18.657818650028297;
0;06:57:49:529;-8.842984;-0.80564886;11.739968;14.719860772013469;
0;06:57:49:540;-3.9743748;-3.1435869;17.486052;18.205487876416807;
0;06:57:49:551;-5.9603653;2.918532;7.937976;10.346750429279755;
0;06:57:49:562;-7.6961613;-2.9867666;8.50181;11.85041979597433;
0;06:57:49:572;-9.036914;-1.2665327;8.106767;12.206128716635357;
0;06:57:49:582;-3.8594532;-1.3204023;6.7612257;7.896392346189552;
0;06:57:49:592;-1.745373;1.067814;6.2704144;6.595805494097502;
0;06:57:49:603;-9.143456;-1.520318;8.048109;12.275431489838503;
0;06:57:49:613;-8.910022;-0.5518635;8.689755;12.45812566237519;
0;06:57:49:624;-11.22282;-2.896984;9.375694;14.907979357067214;
0;06:57:49:634;-0.62249243;2.598906;14.423868;14.669348616021074;
0;06:57:49:645;-7.1885905;-0.31004912;16.952145;18.415949236444394;
0;06:57:49:655;-9.400833;-2.6755204;7.243657;12.165715707342294;
0;06:57:49:665;-5.1678843;-0.676362;11.34253;12.482687596187908;
0;06:57:49:675;-9.306262;-3.98874;8.968679;13.526040287872155;
0;06:57:49:686;-6.55293;-3.4272997;10.418368;12.776136947174946;
0;06:57:49:695;-7.4950485;-0.664391;7.2340803;10.43786766638179;
0;06:57:49:705;-5.683835;-1.5705963;5.616797;8.143780878203165;
0;06:57:49:715;-4.23654;-1.4209588;10.381259;11.30212061065761;
0;06:57:49:725;-8.829816;-0.29688102;10.825383;13.972927620897066;
0;06:57:49:736;-6.493075;-0.39863458;7.991845;10.304781527954253;
0;06:57:49:747;-6.157887;-4.368221;7.309498;10.50855270104335;
0;06:57:49:758;-5.8143187;-0.0047884034;13.263878;14.482291622180615;
0;06:57:49:768;-5.1235914;-2.043451;11.532869;12.784129221849156;
0;06:57:49:779;-8.486248;-0.059855044;6.870162;10.918750670792766;
0;06:57:49:789;-4.7417164;-0.6440403;10.496181;11.535530598395699;
0;06:57:49:800;-5.0122614;0.074220255;13.951014;14.824272788933126;
0;06:57:49:810;-5.907693;-1.3694834;8.844181;10.723612135785663;
0;06:57:49:820;-9.251195;-1.6986861;9.846154;13.61678745647319;
0;06:57:49:831;-6.4499793;-1.2306197;5.391742;8.4963254278757;
0;06:57:49:841;0.0023942017;0.18674773;11.207258;11.208814381388684;
0;06:57:49:851;-5.732916;1.5861586;6.3063273;8.669024904673625;
0;06:57:49:862;-4.036624;-2.8658595;15.50485;16.275990520752973;
0;06:57:49:872;-6.76362;-1.103727;9.436746;11.662629945936695;
0;06:57:49:883;-11.640609;-1.1935096;6.566098;13.41796875;
0;06:57:49:894;-2.8538885;1.1552023;10.571598;11.010806237687877;
0;06:57:49:904;-1.0163386;1.5334862;12.643779;12.776919202477591;
0;06:57:49:915;0.108936176;-1.376666;7.5788455;7.70363406342767;
0;06:57:49:924;1.661576;-2.9616275;6.9144545;7.703359727977969;
0;06:57:49:935;-2.9149406;1.5825673;15.128961;15.48828125;
0;06:57:49:945;-3.4440591;-1.4664485;9.637859;10.339262666071859;
0;06:57:49:956;-2.9592333;1.7968484;6.0501475;6.9706535989589735;
0;06:57:49:967;-2.0458453;-1.4676456;10.255563;10.560115387026066;
0;06:57:49:977;-1.8962077;1.0989386;11.771092;11.973382675760234;
0;06:57:49:988;6.0728927;-4.6722846;14.721947;16.596565424409917;
0;06:57:49:998;0.4225766;-0.58298814;7.311892;7.347258813098283;
0;06:57:50:009;-1.6124948;3.8618474;5.849035;7.192024200262953;
0;06:57:50:020;-0.40222588;1.8974048;9.589975;9.784148447977001;
0;06:57:50:031;0.20350714;-1.8387469;11.565191;11.71221823175282;
0;06:57:50:042;4.390966;-2.7461493;12.25113;13.300831153540743;
0;06:57:50:051;0.6464345;-2.2349873;13.945027;14.13778027324967;
0;06:57:50:061;-2.8419175;2.7246015;7.777564;8.717250024981896;
0;06:57:50:072;-5.6407394;1.3144168;6.6403184;8.81132596900326;
0;06:57:50:083;2.6503813;1.9093759;9.67018;10.206989018162728;
0;06:57:50:093;-1.1923125;-0.7625532;10.947487;11.03859425150306;
0;06:57:50:104;5.446809;-3.7205894;14.25388;15.706164195945489;
0;06:57:50:114;-6.555324;-0.92895025;13.193249;14.761335769211614;
0;06:57:50:125;3.1052797;-1.5969325;7.1873937;7.9907184641611755;
0;06:57:50:134;0.8870517;4.3047748;8.070854;9.190029081645193;
0;06:57:50:145;2.2421699;-4.033033;9.69532;10.737406961839538;
0;06:57:50:156;7.0066314;0.89184016;14.7554655;16.358851733214557;
0;06:57:50:165;2.3343468;-1.6927006;16.994043;17.23693529826467;
0;06:57:50:175;-3.7912183;1.2533646;8.947132;9.797725756147484;
0;06:57:50:186;-5.8909335;1.555034;6.7719994;9.109401800989733;
0;06:57:50:196;4.0617633;3.3291376;3.9217024;6.554450920846024;
0;06:57:50:207;-1.3347675;-0.79248077;10.236409;10.353439172456364;
0;06:57:50:217;4.697424;-3.228581;15.483302;16.499156583557536;
0;06:57:50:228;-1.435324;-1.875857;8.908825;9.216624076243589;
0;06:57:50:238;3.714604;1.8423382;4.313154;5.982958434251116;
0;06:57:50:249;0.3854665;1.7585411;9.572019;9.739845661295634;
0;06:57:50:260;3.8774097;-1.0342951;10.072407;10.842391310998709;
0;06:57:50:270;1.8028339;0.12808979;15.593435;15.697829292052512;
0;06:57:50:280;-4.9667716;-1.0726024;11.419145;12.498646166919814;
0;06:57:50:290;-2.6839;-0.24181437;7.091625;7.5863656768804395;
0;06:57:50:300;2.2266076;3.0310593;5.6886234;6.819496971216402;
0;06:57:50:310;3.643975;-1.0235212;11.186908;11.80987099753912;
0;06:57:50:320;-0.736217;2.7485435;13.384785;13.683894827903817;
0;06:57:50:330;0.17597382;-6.588843;13.576321;15.091729512637615;
0;06:57:50:340;-0.81043726;-0.29568392;10.316615;10.352622292447364;
0;06:57:50:351;5.094861;3.027468;5.6658783;8.199106623667577;
0;06:57:50:361;-5.020641;0.21308395;7.739257;9.227585311904548;
0;06:57:50:372;1.0965444;-1.1540052;9.390059;9.524040722538428;
0;06:57:50:382;9.276335;1.2808979;17.040731;19.444218593678432;
0;06:57:50:392;-2.5809495;-3.1914709;10.657789;11.420825581279482;
0;06:57:50:403;-3.989937;-2.1547816;8.939949;10.024239345241293;
0;06:57:50:413;1.9776106;3.4488475;7.836222;8.787028844582641;
0;06:57:50:423;-0.12689269;-1.0941502;15.486894;15.526015076800585;
0;06:57:50:434;1.804031;2.2876596;13.256695;13.57305694218732;
0;06:57:50:444;3.2632968;-4.6938324;16.312893;17.28559012520436;
0;06:57:50:455;1.0414777;2.7497406;10.933122;11.321611812942923;
0;06:57:50:464;0.93254155;1.2330139;5.795165;5.997824274402454;
0;06:57:50:474;0.46088383;3.095703;9.43914;9.944503907133043;
0;06:57:50:484;3.551798;-0.6751649;16.686388;17.073565908504037;
0;06:57:50:494;-1.4664485;-2.7868507;14.765042;15.097134733877537;
0;06:57:50:505;-1.0630256;-1.9440918;10.493786;10.725160155623296;
0;06:57:50:514;-4.3742065;1.3311762;6.220136;7.719832000880989;
0;06:57:50:525;4.6279917;2.079364;8.526949;9.922243318704997;
0;06:57:50:534;-4.0533834;-0.6655881;10.200497;10.996502060025831;
0;06:57:50:546;1.6136919;0.23223756;13.566744;13.66435004968306;
0;06:57:50:555;-0.32561144;-4.808754;13.429077;14.267804717784854;
0;06:57:50:566;-0.92535895;-0.6979098;8.708909;8.785696404025746;
0;06:57:50:576;1.0127473;-1.3000516;7.763199;7.936185953299706;
0;06:57:50:587;-2.6156654;1.6555905;6.2967505;7.016534079464109;
0;06:57:50:597;3.5697548;2.7641058;13.425486;14.16428980616009;
0;06:57:50:607;2.043451;-2.3810337;16.372747;16.670688805036672;
0;06:57:50:617;-0.7661445;-1.3144168;11.766304;11.864256164666216;
0;06:57:50:627;-2.4791958;2.4241292;6.0226145;6.949438871057043;
0;06:57:50:638;-1.163582;-0.545878;9.02614;9.11718791840723;
0;06:57:50:649;-1.1994951;2.6862943;13.528437;13.844622375694685;
0;06:57:50:660;3.8139634;-3.5314474;15.6712475;16.510767342326094;
0;06:57:50:671;0.80924016;-0.36032736;14.629769;14.656563371183424;
0;06:57:50:681;3.2788591;4.8614264;5.7604494;8.21992466875814;
0;06:57:50:691;-1.3227965;3.7792473;5.1343656;6.51108368978849;
0;06:57:50:702;6.399701;-0.017956512;5.898116;8.703118425294868;
0;06:57:50:713;1.4796166;-3.2094274;15.898696;16.286750435433515;
0;06:57:50:724;-4.691438;-3.3183637;6.206968;8.458580076129614;
0;06:57:50:734;-4.435259;2.64679;3.5565867;6.2710707441064555;
0;06:57:50:745;2.421735;2.835932;8.226477;9.032288171568588;
0;06:57:50:756;-3.3530796;0.6500258;12.682086;13.1339632945006;
0;06:57:50:766;1.021127;-4.8997335;14.690822;15.51999777095818;
0;06:57:50:776;-1.9536686;1.0702082;9.497798;9.755528374327282;
0;06:57:50:787;2.1883004;-1.2880806;9.665392;9.993378163398962;
0;06:57:50:797;-7.1251445;-1.0462662;9.913192;12.25290692151637;
0;06:57:50:808;-0.18674773;1.5705963;8.172607;8.324251286744248;
0;06:57:50:818;-0.2873042;1.4413095;5.7736173;5.95773209248209;
0;06:57:50:829;-8.1163435;-3.9001546;9.580399;13.148013909917749;
0;06:57:50:840;-7.800309;-0.0023942017;6.205771;9.967769179927693;
0;06:57:50:851;2.846706;0.10055647;9.060856;9.498049887221915;
0;06:57:50:861;-5.8622026;0.7302315;7.4244194;9.487921816730502;
0;06:57:50:871;2.1284454;1.4030021;13.402741;13.643026483550464;
0;06:57:50:882;-0.79367787;-2.681506;13.377602;13.666770810606595;
0;06:57:50:893;-2.834735;5.163096;8.317456;10.191828083331066;
0;06:57:50:903;-8.052897;0.48961425;9.101558;12.162534525901663;
0;06:57:50:914;-1.1875241;0.9588778;10.858902;10.96564667972173;
0;06:57:50:924;2.4468741;0.11971009;9.93474;10.232330350981691;
0;06:57:50:935;3.2549171;-4.7070007;14.094666;15.212163796388865;
0;06:57:50:946;-9.124303;-0.2717419;6.991069;11.497903383946245;
0;06:57:50:956;0.45130703;1.6496049;6.4068837;6.631216623292388;
0;06:57:50:968;1.8375498;2.3535004;10.842142;11.245781340637286;
0;06:57:50:978;2.5725696;-2.3355439;11.927913;12.42368611502119;
0;06:57:50:989;-1.6304513;-3.0933087;14.848839;15.254997060069673;
0;06:57:50:999;1.4664485;3.0561984;10.989386;11.50032242032737;
0;06:57:51:010;-0.034715924;1.2294226;6.113594;6.236081915062308;
0;06:57:51:019;1.9141643;2.3247697;14.407108;14.718469572534271;
0;06:57:51:029;2.1883004;-3.678691;16.230293;16.785226702348073;
0;06:57:51:040;-1.6017209;0.089782566;8.822633;8.967297373243277;
0;06:57:51:050;-2.0685902;1.7369933;7.0820484;7.579684822555444;
0;06:57:51:061;-5.366603;2.0901382;9.616311;11.209038656701201;
0;06:57:51:071;5.1918263;1.4077905;11.378444;12.585941137103758;
0;06:57:51:081;0.08020575;-5.8574142;14.585477;15.717883592393202;
0;06:57:51:092;-1.186327;-1.2174516;8.470686;8.63956449046831;
0;06:57:51:102;0.5363012;3.858256;7.487866;8.44049109670837;
0;06:57:51:112;-0.20590134;0.6751649;7.043741;7.079020664564833;
0;06:57:51:122;0.4201824;0.23104046;11.153389;11.163692097161869;
0;06:57:51:133;-6.6522894;-5.631162;13.751098;16.280528339932452;
0;06:57:51:144;1.532289;1.1192893;6.551733;6.820991473577517;
0;06:57:51:154;13.395558;1.2629414;9.660604;16.5639141126855;
0;06:57:51:164;-6.9000893;4.0078936;8.607155;11.737017012826342;
0;06:57:51:174;4.8422728;4.1491513;9.6845455;11.59540819509764;
0;06:57:51:185;-3.8474822;-6.9467764;16.540342;18.34785376530369;
0;06:57:51:196;-0.32800564;-3.465607;14.0803;14.504236062941448;
0;06:57:51:207;-3.5853171;2.4384944;7.1646485;8.374541312794811;
0;06:57:51:218;-2.529474;-0.33159694;8.781932;9.144972590535229;
0;06:57:51:229;0.033518825;1.4161704;8.358158;8.47735046380828;
0;06:57:51:239;-1.8435353;-3.6990416;9.636662;10.485550884133366;
0;06:57:51:249;-3.642778;1.9057846;5.3462524;6.744201995720623;
0;06:57:51:260;-1.258153;-2.1883004;10.418368;10.719794842479205;
0;06:57:51:270;-0.6584055;3.0945058;9.446322;9.96205148488993;
0;06:57:51:281;-0.23104046;-5.6467247;12.719196;13.918219260831398;
0;06:57:51:292;-8.887277;0.6368576;7.4687123;11.626303322857103;
0;06:57:51:303;0.51475334;0.91458505;5.592855;5.690471501718046;
0;06:57:51:313;-1.9405005;2.112883;4.3885717;5.243031554626818;
0;06:57:51:324;1.9009962;-0.15801731;13.558364;13.691895497678031;
0;06:57:51:335;-0.60812724;-6.0836663;14.037205;15.310909017315838;
0;06:57:51:345;1.1216835;-0.7134721;8.250419;8.356830987013428;
0;06:57:51:355;0.16280572;2.8514943;7.2101383;7.7552317526527546;
0;06:57:51:365;-7.043741;2.2577322;5.4982843;9.216440719768974;
0;06:57:51:375;1.5693992;0.9516952;11.265916;11.41444683537565;
0;06:57:51:386;-2.4145525;-3.0478187;17.623718;18.0475683037823;
0;06:57:51:397;4.402937;0.61171854;12.052411;12.84603735239703;
0;06:57:51:407;-2.9975405;-2.2182279;13.046005;13.568494184095305;
0;06:57:51:417;-2.7246015;1.567005;5.469554;6.308325869893035;
0;06:57:51:428;0.4261679;1.2785037;6.5110316;6.649039074300306;
0;06:57:51:438;-1.5705963;-1.3383588;7.4687123;7.748524925383354;
0;06:57:51:449;-3.7792473;-2.6120741;7.406463;8.71557997086342;
0;06:57:51:460;-2.5809495;0.20709845;10.1226845;10.448585334189497;
0;06:57:51:472;1.6543933;1.3934253;7.819463;8.1131157451824;
0;06:57:51:482;-7.339425;-7.466318;17.040731;19.99999008178465;
0;06:57:51:492;1.1468226;4.039018;15.121778;15.693853178486494;
0;06:57:51:502;-2.3930047;-4.1252093;13.200431;14.035497621439909;
0;06:57:51:513;-3.1663318;-0.80086046;8.348581;8.964699923955207;
0;06:57:51:523;-1.3742718;-3.1639376;14.116213;14.531572367055961;
0;06:57:51:533;-4.1623197;-1.9728222;9.739613;10.77390310983976;
0;06:57:51:544;-8.722076;-0.18914193;6.289568;10.754954770896223;
0;06:57:51:554;0.9900024;2.5378537;9.870096;10.239121409514077;
0;06:57:51:565;-0.39624038;-0.1400608;6.9826894;6.995325162363596;
0;06:57:51:575;-1.9285295;-4.0940847;15.951369;16.5809209912468;
0;06:57:51:586;0.8750807;0.47644615;13.193249;13.23081935061002;
0;06:57:51:597;2.528277;0.521936;12.164939;12.435848567341264;
0;06:57:51:608;-2.5342624;3.9396589;1.733402;4.99480530780392;
0;06:57:51:618;1.0642227;0.62249243;11.349713;11.416481926158886;
0;06:57:51:629;3.750517;-0.7685388;14.083892;14.594965947403214;
0;06:57:51:640;0.41180268;-2.859874;7.2819643;7.83424951051895;
0;06:57:51:651;-7.878121;2.12246;7.6003933;11.150587509483104;
0;06:57:51:661;-4.8602295;-2.7928362;5.6215854;7.9387648167965175;
0;06:57:51:672;8.00621;4.4807487;10.382456;13.855392210635788;
0;06:57:51:682;-4.4999022;-7.207744;10.827777;13.763773175491057;
0;06:57:51:693;1.8590976;-2.3187842;10.949882;11.346052624426259;
0;06:57:51:703;-0.5686229;-0.21547815;6.539762;6.567971410078116;
0;06:57:51:714;-3.618836;-1.9644425;10.998962;11.744452932453568;
0;06:57:51:725;5.0254292;-0.8798691;13.36204;14.302909203023065;
0;06:57:51:736;2.3008277;-3.9348705;14.1664915;14.881750290178193;
0;06:57:51:746;-8.446744;0.5566519;5.391742;10.036345236589254;
0;06:57:51:756;2.6599581;0.79966336;10.716447;11.070549574031713;
0;06:57:51:767;-0.34596214;2.3056161;8.911219;9.211154925471352;
0;06:57:51:777;-1.7477672;-5.7269306;15.139734;16.28078514211615;
0;06:57:51:788;-3.940856;0.60573304;9.120711;9.954126807657701;
0;06:57:51:799;-5.1906295;1.508347;6.979098;8.827545092955576;
0;06:57:51:809;-6.2488666;1.0271125;8.098388;10.280427012796194;
0;06:57:51:819;4.2173862;0.49320555;11.10311;11.887331693242022;
0;06:57:51:830;1.9812019;-3.21661;13.395558;13.918071805329944;
0;06:57:51:840;-8.507795;1.5071499;7.8422074;11.668517338333949;
0;06:57:51:850;1.5107412;2.705448;12.386402;12.768114573258629;
0;06:57:51:861;-4.1012673;0.44651863;10.389638;11.17874570194483;
0;06:57:51:872;0.58298814;-4.914099;15.893908;16.64645767791623;
0;06:57:51:882;-3.192668;0.62608373;5.662287;6.53043692606494;
0;06:57:51:893;-2.207454;1.6448165;10.389638;10.748156012359312;
0;06:57:51:903;-3.8271315;2.1021092;10.041282;10.949572717699779;
0;06:57:51:914;0.5279215;-1.6747441;13.888764;13.999330232130472;
0;06:57:51:925;2.6922798;0.4141969;13.692439;13.960760438860413;
0;06:57:51:937;-7.860164;-2.0003555;8.810662;11.975448924909871;
0;06:57:51:948;0.6512229;1.1971009;12.430696;12.505172269748776;
0;06:57:51:959;-1.9416976;1.816002;8.012196;8.441760986443889;
0;06:57:51:969;1.7968484;-0.037110128;11.118672;11.262988920956717;
0;06:57:51:980;-6.1926026;-0.7589619;9.733627;11.561481162882526;
0;06:57:51:990;-3.3686419;-0.049081136;14.269443;14.66175800602194;
0;06:57:52:000;-8.706514;0.06464344;7.920019;11.77005825135264;
0;06:57:52:010;-11.917139;-3.6643257;8.333019;14.996155818444095;
0;06:57:52:020;10.436325;1.7322049;9.661801;14.327170769751612;
0;06:57:52:031;-4.8997335;-2.006341;10.350134;11.625750117557939;
0;06:57:52:041;-12.838906;-1.3467385;5.710171;14.115851486311188;
0;06:57:52:052;0.5674258;3.2429461;12.248735;12.683461415617005;
0;06:57:52:063;-4.349067;0.63087213;10.110714;11.024469382736678;
0;06:57:52:073;-3.1052797;-1.4389153;13.930662;14.34491533852103;
0;06:57:52:083;-8.859743;-0.93014735;8.195353;12.104710543172207;
0;06:57:52:093;-0.5638345;-4.9081135;19.668367;20.27935321325724;
0;06:57:52:103;0.38067806;-2.0566192;13.6673;13.82641287511566;
0;06:57:52:114;-8.949526;-0.5518635;5.98311;10.779432591383811;
0;06:57:52:125;-3.393781;-0.7074866;11.143812;11.670597031986317;
0;06:57:52:136;-7.1526775;2.0901382;10.629059;12.981000073763155;
0;06:57:52:147;-7.795521;0.9516952;9.797073;12.556213931786175;
0;06:57:52:157;-1.5646108;2.2349873;10.754754;11.095400405404485;
0;06:57:52:167;-5.493496;0.49799395;12.008119;13.214439609176408;
0;06:57:52:178;-5.720945;0.82121116;9.750386;11.334620982304614;
0;06:57:52:188;-6.991069;-1.9752164;10.803835;13.019191953837204;
0;06:57:52:198;-3.6978445;-0.78410107;9.036914;9.795646042833743;
0;06:57:52:209;-5.094861;0.581791;9.950302;11.193953884872858;
0;06:57:52:220;-7.8853035;-2.492364;10.129868;13.076854356956296;
0;06:57:52:230;-0.35673606;0.08259996;12.787432;12.792673541441236;
0;06:57:52:240;-6.3601966;-0.81522566;7.3442135;9.749572744544855;
0;06:57:52:250;-5.5162406;-2.0937295;7.359776;9.43286342281683;
0;06:57:52:260;-3.2860417;0.35913026;8.264784;8.901331564057214;
0;06:57:52:271;-0.8283938;0.073023155;11.650186;11.679828594465492;
0;06:57:52:280;-7.2699933;-2.5246856;11.810597;14.096703196691948;
0;06:57:52:291;-10.274716;-2.8407204;6.9371996;12.718656422413739;
0;06:57:52:302;-0.4333505;1.3215994;12.817359;12.892599280631408;
0;06:57:52:313;-3.513491;-0.23104046;6.1806316;7.113241565306653;
0;06:57:52:324;-8.422802;-2.385822;8.098388;11.925587407325713;
0;06:57:52:335;0.93493575;0.7218518;13.273455;13.325906083610928;
0;06:57:52:346;-8.966286;-2.6994624;8.635885;12.738127322935366;
0;06:57:52:356;-7.824251;3.1160536;7.595605;11.341160334137305;
0;06:57:52:367;-6.3865333;1.0833763;8.554482;10.730362454538136;
0;06:57:52:377;-6.349423;2.3439236;8.177396;10.615034388928045;
0;06:57:52:388;-5.207389;-4.8973393;13.025655;14.858280819500377;
0;06:57:52:398;-9.544485;2.0973208;9.561244;13.671625555760151;
0;06:57:52:408;-1.1456255;-0.6703765;13.706804;13.770923577655953;
0;06:57:52:419;-3.5817258;-2.8083985;9.291897;10.346748585851891;
0;06:57:52:429;-3.2034419;2.0925324;11.836933;12.440004949538054;
0;06:57:52:440;0.6703765;-1.6304513;15.79814;15.896193887297018;
0;06:57:52:450;-7.965509;-0.4417302;5.6084175;9.75186178576041;
0;06:57:52:460;-5.341464;-0.49200845;8.620323;10.15299376886951;
0;06:57:52:471;-2.3786395;1.1432313;11.733982;12.027104602404833;
0;06:57:52:481;-5.4767365;-1.1911154;8.492233;10.175039335357589;
0;06:57:52:491;1.899799;-1.055843;15.167268;15.322207740688942;
0;06:57:52:502;-4.441244;-3.1723173;11.827356;13.025919969984965;
0;06:57:52:512;1.2808979;1.6292542;8.796297;9.03714588785308;
0;06:57:52:522;-2.1871033;1.4879963;10.117896;10.457981139150899;
0;06:57:52:532;-0.9600749;3.157952;12.591106;13.016542326805064;
0;06:57:52:543;-3.2680852;-2.7988217;9.331401;10.275642141060228;
0;06:57:52:554;-2.27928;-1.7764976;10.649409;11.034535726469441;
0;06:57:52:565;-3.064578;1.9728222;9.356541;10.041340634024703;
0;06:57:52:576;-0.12090719;-0.7206547;15.392323;15.409658182698836;
0;06:57:52:586;2.529474;1.9632454;11.727997;12.157240329599503;
0;06:57:52:597;4.999093;-0.31004912;13.129802;14.052713608610437;
0;06:57:52:607;-5.657499;1.7788919;8.474277;10.343360547804325;
0;06:57:52:618;-4.5274353;0.130484;9.23683;10.287551942789204;
0;06:57:52:629;-5.1822495;-1.1408371;7.7440453;9.387622524635248;
0;06:57:52:640;-1.3634979;-3.6379895;17.211916;17.644946776018216;
0;06:57:52:651;4.4807487;1.2042835;14.209587;14.947901978524287;
0;06:57:52:661;0.21547815;-2.1763294;4.96318;5.423651588322546;
0;06:57:52:672;-0.14724341;4.9559975;0.78410107;5.0198014123551165;
0;06:57:52:683;-1.532289;-1.8076223;13.281834;13.491571691758791;
0;06:57:52:693;0.6907272;0.62368953;12.922704;12.95617095142914;
0;06:57:52:704;-0.8403648;-2.7281928;9.050082;9.489638450174962;
0;06:57:52:714;-5.765238;1.6723499;7.5884223;9.675684657748588;
0;06:57:52:725;-0.31244332;0.7194576;10.087969;10.118416612115164;
0;06:57:52:735;1.1372458;3.821146;7.5106106;8.503161571666576;
0;06:57:52:746;0.08499416;-2.9317;14.634558;14.925560940372245;
0;06:57:52:756;-0.21308395;-0.02873042;12.212823;12.214715706276436;
0;06:57:52:767;-4.945224;1.0307038;7.3753386;8.939418773489276;
0;06:57:52:778;-7.902063;1.5646108;7.8062944;11.217345253387336;
0;06:57:52:788;-1.8842367;-0.36511576;6.3721676;6.654936325032297;
0;06:57:52:799;0.56982;-1.0043676;14.301764;14.348306036198085;
0;06:57:52:809;-0.35793316;-5.2361193;11.2132435;12.380706396209412;
0;06:57:52:820;-5.133168;0.49799395;8.717288;10.128599304185455;
0;06:57:52:830;1.0007763;1.3024458;6.549339;6.752166965354704;
0;06:57:52:841;-2.6013002;0.8331822;7.7213006;8.190203737139838;
0;06:57:52:852;-4.355053;0.46208093;10.313024;11.204394323141145;
0;06:57:52:862;2.2577322;-2.2505496;16.734272;17.035204171137597;
0;06:57:52:873;-5.1607018;-1.7633295;9.166202;10.66589992469521;
0;06:57:52:883;-11.902774;1.8902222;6.825869;13.85068395144628;
0;06:57:52:894;-2.516306;1.899799;13.680469;14.039097280146123;
0;06:57:52:905;-3.8007953;0.107739076;9.380483;10.121813614162422;
0;06:57:52:916;2.098518;-1.4520833;13.794193;14.028260726085163;
0;06:57:52:926;-4.8973393;0.8559271;8.740033;10.055084339245292;
0;06:57:52:937;1.70946;1.2258313;11.476605;11.667792856265436;
0;06:57:52:947;-1.1623849;0.7781156;10.741586;10.832278821436052;
0;06:57:52:957;-4.414908;0.1448492;10.641029;11.521453748740868;
0;06:57:52:968;1.0462662;0.7086837;13.78701;13.844802575320797;
0;06:57:52:979;-7.8422074;-1.5801731;11.197681;13.761730946630985;
0;06:57:52:989;-6.613982;-0.4237737;5.7029886;8.743479015413072;
0;06:57:53:000;1.1372458;1.7142484;13.450625;13.607031496705803;
0;06:57:53:011;-0.33758244;0.4249708;13.006501;13.017819442858892;
0;06:57:53:022;-3.881001;-4.876989;15.303738;16.524272289787266;
0;06:57:53:031;2.5246856;1.5394717;12.198458;12.55174835306819;
0;06:57:53:042;-7.2209125;-1.5945383;8.133103;10.992338113085077;
0;06:57:53:052;-1.7705121;1.3311762;7.3729444;7.698509706220896;
0;06:57:53:063;-1.5526398;1.6699557;7.3286514;7.6751923080358075;
0;06:57:53:074;-0.6955156;0.031124622;9.880871;9.905368127890222;
0;06:57:53:085;-1.0642227;-2.27928;13.595474;13.826228573172699;
0;06:57:53:094;-4.2305546;0.5374983;11.623849;12.381452015167941;
0;06:57:53:105;-4.6926355;0.12928689;7.7967176;9.100898580935223;
0;06:57:53:115;-3.3806129;1.6843209;6.227319;7.2831984111006465;
0;06:57:53:125;1.0618285;-0.90381116;11.371261;11.456435907648359;
0;06:57:53:137;1.7357962;-2.492364;11.571177;11.963151304557766;
0;06:57:53:148;-4.074931;-2.754529;10.274716;11.391324915267553;
0;06:57:53:159;-0.91099375;0.07062895;11.616667;11.65254672132978;
0;06:57:53:169;-4.6136265;-3.309984;8.095993;9.888713344582708;
0;06:57:53:180;3.180697;0.94930094;10.645818;11.151297701599017;
0;06:57:53:191;2.980781;-2.0614076;16.943766;17.32702071830747;
0;06:57:53:202;-4.072537;0.60333884;2.7281928;4.938887775327092;
0;06:57:53:213;-2.8072014;-0.4261679;10.370484;10.75215978882902;
0;06:57:53:223;-3.892972;1.7501614;10.388441;11.23111750843527;
0;06:57:53:234;4.214992;-0.16280572;13.679272;14.314856988989948;
0;06:57:53:245;-2.9352913;-4.3047748;10.726024;11.924538171170536;
0;06:57:53:255;-7.429208;-1.8543092;8.42759;11.386653087289234;
0;06:57:53:266;-1.2725182;1.8411411;11.832145;12.041958252083498;
0;06:57:53:276;-3.6140475;-0.40462008;7.4711065;8.309180952304777;
0;06:57:53:287;-1.7860745;0.8343793;10.368091;10.553841015510137;
0;06:57:53:297;2.755726;-3.063381;19.98919;20.409459093954755;
0;06:57:53:308;0.29448682;-0.6536171;6.587646;6.62653894364034;
0;06:57:53:318;-0.9564836;1.1228806;6.862979;7.019700801374679;
0;06:57:53:329;-0.36391866;0.94690675;6.859388;6.933993716456865;
0;06:57:53:340;5.6323595;-1.6639702;15.605407;16.67396161965566;
0;06:57:53:351;7.4351935;-3.417723;13.131;15.472106939251953;
0;06:57:53:361;-1.638831;-2.5210943;9.882068;10.329421338605068;
0;06:57:53:372;3.5326445;2.3068132;7.0329676;8.201438628744025;
0;06:57:53:383;-4.1252093;-1.3227965;10.675745;11.521227277443824;
0;06:57:53:394;3.0873232;-1.7501614;12.24275;12.74674736869941;
0;06:57:53:404;2.823961;-3.3602622;17.682377;18.219016333280557;
0;06:57:53:415;-2.4492683;0.45489833;6.007052;6.503116447446772;
0;06:57:53:425;0.7278373;3.0454245;3.0825348;4.393902298741822;
0;06:57:53:436;-3.1028855;2.31639;6.206968;7.315737276710767;
0;06:57:53:446;6.5744777;0.78410107;7.2065473;9.786362357055545;
0;06:57:53:456;7.526173;-1.5705963;12.495338;14.671180261772994;
0;06:57:53:468;-0.5770026;-2.1499932;7.4615297;7.786515870833263;
0;06:57:53:479;-2.5510218;3.2213984;6.5589156;7.739799431461891;
0;06:57:53:488;-1.5813702;0.79607207;10.20289;10.355357868488788;
0;06:57:53:499;-0.30765492;1.6675615;10.943896;11.074487775061222;
0;06:57:53:509;5.74369;-4.3897686;19.61809;20.907641810686933;
0;06:57:53:520;-0.077811554;0.45250413;9.872491;9.883162203546068;
0;06:57:53:530;-4.036624;2.5450363;3.5529952;5.9493963624586925;
0;06:57:53:541;-6.278794;0.80086046;10.579977;12.328850283639843;
0;06:57:53:552;2.4911668;1.1456255;15.166071;15.411945891803377;
0;06:57:53:563;8.306683;-2.6731262;13.3704195;15.966048458185908;
0;06:57:53:574;-3.347094;-1.0319009;6.6870055;7.5487679897346025;
0;06:57:53:584;5.7377043;1.9309237;7.406463;9.565846375000865;
0;06:57:53:595;-2.219425;-0.59136784;10.415975;10.666212866984614;
0;06:57:53:605;-1.8411411;-1.021127;11.7387705;11.926073607413846;
0;06:57:53:615;5.595249;-3.2944214;15.565903;16.86586395484558;
0;06:57:53:626;1.2042835;-2.837129;16.953342;17.231234308401;
0;06:57:53:636;-2.5881321;0.6679823;9.582792;9.948594911365586;
0;06:57:53:647;-0.4285621;5.0493712;4.915296;7.05974153645326;
0;06:57:53:657;3.086126;0.017956512;8.993818;9.508589224641517;
0;06:57:53:667;6.542156;-2.9879637;17.748217;19.150115631790257;
0;06:57:53:677;0.8655039;-1.6771383;5.6299653;5.937878405910558;
0;06:57:53:687;0.021547815;2.9460652;7.4627266;8.023219743576199;
0;06:57:53:697;3.6535518;2.6743233;5.4312468;7.0709890473963;
0;06:57:53:708;-0.023942016;0.04309563;12.822147;12.82224227078033;
0;06:57:53:719;3.8869865;-2.801216;13.065159;13.915956825533671;
0;06:57:53:729;6.697779;-2.0805612;19.507956;20.73039624834222;
0;06:57:53:740;-6.7253127;-0.5662287;9.380483;11.556119570865162;
0;06:57:53:750;1.0510546;3.822343;5.163096;6.509422515241547;
0;06:57:53:761;-0.7410054;-0.48362875;8.495825;8.54178134251972;
0;06:57:53:771;4.3742065;-2.4253263;17.614141;18.310485104062472;
0;06:57:53:781;3.2920272;-1.7860745;10.724827;11.359992219089476;
0;06:57:53:792;0.664391;-1.9165585;5.777209;6.122969310214459;
0;06:57:53:802;2.0326772;2.3630772;9.155427;9.671492018997645;
0;06:57:53:813;-3.6367924;-0.4405331;11.353305;11.929705406830045;
0;06:57:53:823;8.226477;0.34596214;9.566033;12.621553158228053;
0;06:57:53:834;4.2317514;-0.7026982;10.463859;11.309016075879113;
0;06:57:53:844;-2.1918917;-0.59017074;7.8888946;8.208979495671283;
0;06:57:53:855;0.8702923;1.9261353;9.082404;9.325099128421254;
0;06:57:53:865;3.2800562;2.220622;10.292673;11.028556170618895;
0;06:57:53:876;8.945934;-3.1364043;17.028759;19.489622827269354;
0;06:57:53:887;0.06823475;0.021547815;9.956287;9.956544297748458;
0;06:57:53:897;-1.4700398;0.25857377;6.968324;7.12638894981963;
0;06:57:53:908;3.3387144;2.030283;6.0860605;7.232509693886899;
0;06:57:53:919;0.94570965;-2.3415294;8.890868;9.242546584053468;
0;06:57:53:929;2.3127987;1.7597382;10.149021;10.556910011884321;
0;06:57:53:940;-1.9764135;-1.22224;12.813767;13.022777263745734;
0;06:57:53:950;-1.6819267;-0.32920274;7.8733325;8.057705185349233;
0;06:57:53:960;1.4820108;1.1755531;8.653842;8.858174883578807;
0;06:57:53:971;-0.7553706;-0.074220255;6.295553;6.341142090176856;
0;06:57:53:981;2.873042;-2.0326772;19.677944;19.990188480803447;
0;06:57:53:992;3.2513258;-4.321534;13.326127;14.381670391067399;
0;06:57:54:002;-0.41060558;-0.19871874;6.587646;6.603420885337843;
0;06:57:54:012;3.0418332;1.8459295;8.360553;9.08620073981845;
0;06:57:54:023;-0.40462008;-1.4317327;11.002554;11.102691915082147;
0;06:57:54:033;-1.733402;-0.062249243;9.301474;9.461816446062794;
0;06:57:54:044;6.4164605;-1.7465701;9.985018;11.996751981493523;
0;06:57:54:055;-4.55856;1.163582;6.9767036;8.414795569998315;
0;06:57:54:065;-0.6404489;2.3558946;4.8243165;5.406888538202982;
0;06:57:54:076;-1.7621324;-0.31244332;10.626664;10.776303779335995;
0;06:57:54:086;0.4429273;0.4285621;16.092627;16.1044241755905;
0;06:57:54:097;2.5270798;-3.762488;17.633295;18.20647015266611;
0;06:57:54:107;-9.827001;-0.7757214;10.296265;14.254288948171661;
0;06:57:54:118;-4.226963;-1.5454572;12.088325;12.898962739154406;
0;06:57:54:128;-2.681506;0.25258827;10.613496;10.949911693756905;
0;06:57:54:139;-10.260351;-2.5270798;13.48175;17.129463449460587;
0;06:57:54:149;2.6491842;-0.36032736;13.620613;13.880530002819766;
0;06:57:54:160;-5.17387;-3.0382419;11.609484;13.068280414918013;
0;06:57:54:169;-7.788338;0.11611878;5.267244;9.402954741001794;
0;06:57:54:179;-5.3163247;1.0031705;8.620323;10.177408099320632;
0;06:57:54:190;0.31004912;1.6591818;9.660604;9.806950451625854;
0;06:57:54:200;-0.25139117;1.8207904;10.5285015;10.687741639378155;
0;06:57:54:211;-8.643068;-2.9987376;14.669273;17.288222273979798;
0;06:57:54:221;-10.650606;-2.336741;6.6391215;12.766115064797757;
0;06:57:54:231;0.5410896;2.4265234;9.870096;10.178388581509891;
0;06:57:54:242;-1.4341269;-0.039504327;11.063606;11.156238716183895;
0;06:57:54:252;-3.8486793;4.8003745;9.593566;11.397035822401778;
0;06:57:54:263;0.5650316;-3.345897;15.920244;16.27785229512164;
0;06:57:54:274;-4.5645456;0.5746084;13.965379;14.703640773697959;
0;06:57:54:285;-6.9611416;0.5674258;9.166202;11.52383209070175;
0;06:57:54:296;-7.848193;1.2006922;10.585963;13.232475928164506;
0;06:57:54:307;1.2054806;-0.015562311;10.220847;10.291702291038314;
0;06:57:54:318;6.4152637;1.1587936;12.446258;14.05018666642291;
0;06:57:54:328;1.9381063;-5.237316;14.137761;15.200724554360528;
0;06:57:54:339;-5.0397944;0.79726917;10.953473;12.083614232097789;
0;06:57:54:350;3.3614593;1.0055647;7.9463553;8.686491324508516;
0;06:57:54:361;1.6232687;1.7753005;9.064447;9.378213967317917;
0;06:57:54:372;1.7477672;-2.7461493;14.182054;14.55083053682928;
0;06:57:54:382;4.471172;-3.0083144;16.840815;17.682034891667765;
0;06:57:54:393;-6.443994;3.003526;3.9492357;8.132815314300666;
0;06:57:54:404;-2.6982653;4.4424415;0.9528923;5.284309358826399;
0;06:57:54:415;6.494272;0.090979666;9.643845;11.627019891302087;
0;06:57:54:426;10.53329;-0.093373865;12.059594;16.012268131432556;
0;06:57:54:436;4.772841;-3.3602622;12.582727;13.87070267947034;
0;06:57:54:446;-2.4516625;1.1563994;7.717709;8.179910884455692;
0;06:57:54:457;4.056975;0.37110126;11.5077305;12.207563738386042;
0;06:57:54:467;3.3889925;2.3247697;9.510966;10.360902699501388;
0;06:57:54:477;-1.3443443;-2.327164;6.82946;7.339242404018374;
0;06:57:54:488;4.629189;-1.7274165;13.354857;14.239577915922677;
0;06:57:54:499;4.675876;0.12090719;10.110714;11.140241148168897;
0;06:57:54:509;-2.954445;0.7218518;8.839393;9.34797741234221;
0;06:57:54:520;5.3857565;1.6376339;12.151771;13.392301688165329;
0;06:57:54:530;4.010288;-1.2629414;8.371326;9.3678459845961;
0;06:57:54:540;8.959103;-0.59735334;13.538013;16.24500373913084;
0;06:57:54:551;2.7712884;-0.027533319;8.91481;9.335664548834185;
0;06:57:54:562;-0.41180268;1.6591818;8.611943;8.779978812850379;
0;06:57:54:572;9.137471;1.4269443;7.04015;11.62296269110204;
0;06:57:54:583;1.0426749;0.58418524;10.808623;10.874501534800162;
0;06:57:54:594;3.86903;-4.134786;15.665261;16.657318138241635;
0;06:57:54:604;-1.0271125;-2.1942859;16.662447;16.837665768312146;
0;06:57:54:615;-3.0226796;1.685518;4.9548006;6.043807639130202;
0;06:57:54:625;-0.81881696;1.7034745;9.753978;9.935409997889964;
0;06:57:54:636;1.4257472;0.973243;10.042479;10.189766286578788;
0;06:57:54:647;5.246893;-3.0573955;15.503654;16.650549967162778;
0;06:57:54:657;-3.3087866;-2.1152773;11.155783;11.826831661250392;
0;06:57:54:667;-5.7760115;-2.2098482;8.829816;10.78013821826431;
0;06:57:54:677;1.661576;1.4257472;9.831789;10.072619544574593;
0;06:57:54:687;-1.2904748;-1.3754689;8.261193;8.473757006209995;
0;06:57:54:697;-1.246182;0.90859956;9.55047;9.674193072121296;
0;06:57:54:707;4.283227;-3.594894;18.644846;19.46534270570109;
0;06:57:54:717;-2.2709002;-1.4772224;7.7679873;8.226834226578385;
0;06:57:54:728;-4.220978;3.2261868;4.7656584;7.136976649777053;
0;06:57:54:738;-0.7182605;2.9616275;2.396596;3.8769585366775834;
0;06:57:54:749;0.29209262;0.6979098;16.93778;16.954668528523623;
0;06:57:54:759;6.3470287;-2.6647465;12.665327;14.41513641409314;
0;06:57:54:770;-0.08738836;-0.724246;10.770316;10.794993080606933;
0;06:57:54:780;-5.837064;0.06703765;8.256405;10.111578817577502;
0;06:57:54:790;-2.0398598;1.9871874;7.949947;8.444619572926024;
0;06:57:54:801;2.3774424;3.8391025;6.5984197;7.995629070218029;
0;06:57:54:813;3.145981;-1.7058687;11.921927;12.447471417028215;
0;06:57:54:823;1.0055647;-4.2317514;19.044678;19.535061346875057;
0;06:57:54:833;-1.7166426;0.60453594;6.3566055;6.612016154653173;
0;06:57:54:844;0.037110128;2.6192567;4.128801;4.88967076946543;
0;06:57:54:855;-2.2278047;0.06823475;11.874043;12.081418712245096;
0;06:57:54:864;0.41180268;0.15322891;17.535133;17.54063710916204;
0;06:57:54:875;0.33159694;0.044292733;12.520478;12.524947029656577;
0;06:57:54:885;0.8750807;-1.2006922;8.919599;9.042492478683672;
0;06:57:54:896;2.7868507;5.4408236;6.4763155;8.905714587799002;
0;06:57:54:907;-2.1691468;-1.3838485;12.181698;12.450462142762387;
0;06:57:54:917;-0.51235914;-0.23702596;14.451402;14.462424162168816;
0;06:57:54:928;3.503914;-2.815581;16.042349;16.660188763889728;
0;06:57:54:938;-0.2669535;0.557849;8.512584;8.53501859156724;
0;06:57:54:949;-6.4990606;1.9153614;5.816713;8.929756277758973;
0;06:57:54:959;-0.7589619;1.4532804;11.98298;12.094620547640437;
0;06:57:54:970;3.66672;1.5358804;11.737574;12.392513328485053;
1;06:57:54:981;5.619191;-1.42455;18.574217;19.457804877588245;
1;06:57:54:991;0.59017074;-2.6431987;10.74398;11.080068312892271;
1;06:57:55:001;3.2273839;-5.2277393;14.760254;15.98781884943972;
1;06:57:55:012;3.2273839;-5.2277393;14.760254;15.98781884943972;
1;06:57:55:023;3.2273839;-5.2277393;14.760254;15.98781884943972;
1;06:57:55:032;-4.0402155;1.0929531;7.7608047;8.817480965732486;
1;06:57:55:042;-4.0402155;1.0929531;7.7608047;8.817480965732486;
1;06:57:55:053;7.038953;-1.3611037;17.733852;19.12822461836909;
1;06:57:55:062;7.038953;-1.3611037;17.733852;19.12822461836909;
1;06:57:55:073;7.038953;-1.3611037;17.733852;19.12822461836909;
1;06:57:55:083;7.038953;-1.3611037;17.733852;19.12822461836909;
1;06:57:55:092;-5.243302;-1.5717934;7.8170686;9.543023913829508;
1;06:57:55:103;-5.243302;-1.5717934;7.8170686;9.543023913829508;
1;06:57:55:112;-3.3183637;1.5861586;9.151836;9.863242187422648;
1;06:57:55:123;4.237737;2.8455088;7.2101383;8.834105931689109;
1;06:57:55:133;0.272939;3.4943373;10.891224;11.441312894378438;
1;06:57:55:143;7.15986;-0.18195933;14.338874;16.028100133717793;
1;06:57:55:153;-0.8583213;-2.7820623;17.559074;17.798811729287138;
1;06:57:55:163;-6.339846;0.35913026;9.132683;11.123332037883253;
1;06:57:55:174;-6.9024835;3.169923;1.4700398;7.736517961884439;
1;06:57:55:185;-0.973243;3.441665;10.280702;10.885085416922157;
1;06:57:55:195;0.89423436;0.6584055;13.867216;13.911607991675963;
1;06:57:55:206;2.9903579;-2.9161377;13.091495;13.741663399613646;
1;06:57:55:216;-2.195483;-0.80205756;9.28232;9.572090077264507;
1;06:57:55:226;-1.9644425;3.6343982;10.040085;10.856850046497323;
1;06:57:55:236;-1.982399;3.1675289;9.446322;10.158550670907658;
1;06:57:55:246;-1.8315643;0.4297592;11.275493;11.431362819375611;
1;06:57:55:256;6.0836663;-0.5386954;17.308882;18.354796636582833;
1;06:57:55:266;-5.2875943;-3.1639376;13.634978;14.962679402511561;
1;06:57:55:276;-8.567651;2.0626047;7.9990277;11.90140464891382;
1;06:57:55:286;-2.3020248;0.7505822;6.815095;7.232441654121617;
1;06:57:55:296;2.2170308;3.1675289;5.759252;6.936674051691781;
1;06:57:55:306;2.2709002;0.3890578;11.941081;12.161322547867943;
1;06:57:55:317;-4.059369;-3.5003228;12.430696;13.537094580725215;
1;06:57:55:328;-4.3275194;-0.30645782;9.776723;10.696057914354547;
1;06:57:55:337;5.2887917;4.522647;7.608773;10.311114223888994;
1;06:57:55:347;-1.6436194;1.1935096;7.905654;8.162433019950349;
1;06:57:55:357;-2.2984335;0.5518635;9.198523;9.497376732283598;
1;06:57:55:367;-0.5506664;-3.084929;13.599066;13.955450840237907;
1;06:57:55:377;-1.5466543;-1.0474633;8.586804;8.787634866691548;
1;06:57:55:387;-0.50038815;2.7569232;5.2205567;5.924966533582469;
1;06:57:55:397;-1.055843;0.6596026;6.4667387;6.585483376988644;
1;06:57:55:407;3.228581;-0.32920274;14.052767;14.422633588188415;
1;06:57:55:418;6.7205243;-4.048595;12.101493;14.422298735141498;
1;06:57:55:429;-3.3961751;-0.40102878;6.1662664;7.051075835691588;
1;06:57:55:440;5.4743423;3.2812533;3.6032736;7.329299279582428;
1;06:57:55:451;-0.2825158;1.9536686;8.408437;8.63703940636091;
1;06:57:55:461;-1.5801731;-0.6440403;12.825739;12.93875189727277;
1;06:57:55:471;6.353014;-3.4033577;17.01559;18.479014273111524;
1;06:57:55:481;-2.2517467;-1.4808137;6.409278;6.952842175164351;
1;06:57:55:491;-3.502717;1.5921441;2.645593;4.669380261879438;
1;06:57:55:501;-5.2528787;2.504335;14.300567;15.439256328797969;
1;06:57:55:511;6.241684;5.66947;10.964247;13.831710229965859;
1;06:57:55:522;2.7688942;-3.5781345;16.225506;16.8444901057832;
1;06:57:55:532;-3.7193923;-0.62129533;11.122264;11.74413266697926;
1;06:57:55:542;3.383007;0.80564886;9.946711;10.53711788258461;
1;06:57:55:552;-0.25139117;2.5833437;4.631583;5.309277263817262;
1;06:57:55:563;2.8502972;-0.88944596;12.465411;12.818025913925986;
1;06:57:55:573;0.090979666;-0.6943185;19.235016;19.247758214635347;
1;06:57:55:584;-5.2205567;-1.1384429;9.775525;11.140518851396479;
1;06:57:55:594;0.11971009;2.3127987;2.837129;3.662331243279074;
1;06:57:55:605;0.39145198;-0.4165911;6.564901;6.58974244605744;
1;06:57:55:616;6.235698;1.7753005;11.11987;12.871951436711626;
1;06:57:55:626;1.435324;-5.7544637;15.8544035;16.92737730113327;
1;06:57:55:636;-1.4293385;-1.6280571;9.51336;9.756925812896158;
1;06:57:55:646;1.6041151;1.292869;8.774749;9.013374140193742;
1;06:57:55:656;-0.21906945;3.4991257;6.6630635;7.529162612291887;
1;06:57:55:666;3.7553053;-1.5023615;13.563152;14.153392242246754;
1;06:57:55:676;-3.1890767;-4.164714;15.848418;16.693933282700804;
1;06:57:55:687;-8.153454;-0.30047232;6.5361705;10.454215364936978;
1;06:57:55:698;-2.9712043;2.6970682;14.893131;15.424253394360374;
1;06:57:55:710;-0.45130703;0.15442601;4.2999864;4.326362113128203;
1;06:57:55:727;1.6903064;-4.936844;16.54154;17.34508898266037;
1;06:57:55:738;-0.10414778;0.6727707;8.309077;8.33691995367383;
1;06:57:55:749;4.787206;-0.016759412;9.61272;10.73880806217298;
1;06:57:55:759;-4.5358152;-2.6910827;12.856863;13.896563295849333;
1;06:57:55:769;1.0127473;3.8067808;11.629835;12.27885619462343;
1;06:57:55:779;-4.8243165;5.675455;4.296395;8.59905952811506;
1;06:57:55:789;-5.580884;-2.360683;5.5964465;8.248594222085664;
1;06:57:55:800;-3.0681696;2.7509377;11.852495;12.548424878005418;
1;06:57:55:810;4.546589;-0.60333884;16.564285;17.187525745719352;
1;06:57:55:820;0.37110126;-4.486734;14.365211;15.054160947751964;
1;06:57:55:833;-4.1706996;2.3355439;9.409213;10.553804508887609;
1;06:57:55:844;-0.33997664;2.0386627;6.066907;6.409296865000945;
1;06:57:55:853;-2.0350714;3.2860417;7.785944;8.692554787174329;
1;06:57:55:864;6.6534867;-3.1651347;16.827646;18.36999277412717;
1;06:57:55:874;-1.2210429;-1.6124948;13.9438305;14.089765234914314;
1;06:57:55:885;-11.057621;0.8678981;5.7843914;12.50933306360851;
1;06:57:55:898;1.5095441;-1.70946;10.06283;10.318019060555391;
1;06:57:55:908;1.3551182;0.59855044;6.385336;6.554931054120065;
1;06:57:55:918;3.6834793;-1.484405;16.729485;17.19439226155262;
1;06:57:55:929;-1.447295;-1.2198458;12.559982;12.70180483030918;
1;06:57:55:939;2.5031378;3.6164417;11.534067;12.34419068141373;
1;06:57:55:950;-2.0171149;4.1144357;5.415684;7.094150347062608;
1;06:57:55:961;-0.5398925;-3.1723173;13.505692;13.883759903660824;
1;06:57:55:971;8.388085;-0.63206923;17.181988;19.130608827002785;
1;06:57:55:982;-5.631162;-0.91937345;8.965088;10.626760538883957;
1;06:57:55:993;-7.382521;3.572149;6.31351;10.349988824958112;
1;06:57:56:002;1.8986019;-0.7026982;6.777985;7.0738641912286715;
1;06:57:56:013;5.457583;5.379771;9.88925;12.510971747330421;
1;06:57:56:024;-0.7649474;-5.270835;14.119804;15.090915074091349;
1;06:57:56:035;2.8107927;1.1216835;11.368867;11.764771611647152;
1;06:57:56:045;-5.651513;1.3180081;6.495469;8.71021621523331;
1;06:57:56:055;3.180697;-0.34715924;10.475829;10.953554066132485;
1;06:57:56:066;5.357026;0.5327099;14.884752;15.828371789783844;
1;06:57:56:077;-3.1771057;2.3786395;9.009381;9.84484043439562;
1;06:57:56:087;-4.4556093;0.23822308;10.844537;11.726601536410708;
1;06:57:56:097;4.3861775;0.61291564;7.123947;8.388375149365006;
1;06:57:56:108;2.7940333;-2.3008277;13.77504;14.242617652411141;
1;06:57:56:118;-4.015076;-3.1483753;14.326903;15.20832909710272;
1;06:57:56:129;2.3116016;1.520318;9.794679;10.177946701572896;
1;06:57:56:140;-6.7013707;1.5191209;8.931569;11.268940896582254;
1;06:57:56:151;-4.805163;3.3411086;9.044097;10.77257137675972;
1;06:57:56:161;-0.17836803;-0.3196259;15.586253;15.590550402112823;
1;06:57:56:171;-2.1188686;2.030283;2.3570917;3.7639784636089137;
1;06:57:56:182;-3.4919431;-0.50158525;6.927623;7.77413750185222;
1;06:57:56:193;0.33638534;1.2378023;5.6658783;5.8092586544671905;
1;06:57:56:203;5.631162;2.3008277;13.836092;15.114272671991872;
1;06:57:56:214;-7.050924;1.4460979;13.445837;15.251139613861135;
1;06:57:56:224;-2.0506337;-3.7828386;11.309011;12.099946556288547;
1;06:57:56:234;-11.311406;-1.1336545;11.567586;16.21857312644403;
1;06:57:56:244;-3.5972881;-0.724246;9.582792;10.26133138900601;
1;06:57:56:254;-1.2389994;-1.3395559;11.230003;11.377280205866976;
1;06:57:56:264;-10.127473;2.268506;9.406818;14.007143105694267;
1;06:57:56:274;-5.422867;-1.2677298;8.364143;10.048558024491973;
1;06:57:56:285;-1.6292542;0.7026982;8.079233;8.271775148003062;
1;06:57:56:296;-2.6312277;0.62249243;12.585121;12.87230054092198;
1;06:57:56:307;-7.517793;-3.845088;12.933477;15.445929939922179;
1;06:57:56:317;-7.1167645;2.7868507;11.779472;14.041753359261932;
1;06:57:56:328;-5.2241483;-0.8846575;11.410766;12.580934274789074;
1;06:57:56:338;-7.4926543;-1.4556746;7.145495;10.455474908697656;
1;06:57:56:349;-3.8367083;-1.9835961;11.984177;12.738738827644804;
1;06:57:56:360;-9.452309;-1.9201498;7.5932107;12.275583760662427;
1;06:57:56:371;-5.7616463;0.5758055;8.734048;10.479108098639347;
1;06:57:56:381;-2.291251;-0.37469256;10.448297;10.703136405103413;
1;06:57:56:392;-8.546103;1.7788919;8.935161;12.491493687737318;
1;06:57:56:403;-5.741296;-2.4971523;9.452309;11.337741742401032;
1;06:57:56:413;-9.551667;0.034715924;10.077195;13.884718781790795;
1;06:57:56:424;1.2354081;-0.5626374;13.584701;13.652357720844067;
1;06:57:56:435;-7.265205;-1.5682021;8.918402;11.609493948120448;
1;06:57:56:446;-4.638766;1.1312603;9.797073;10.898648561464334;
1;06:57:56:456;-6.896498;0.33758244;11.113884;13.084114845082064;
1;06:57:56:467;-11.704055;-1.484405;5.9998693;13.235814400214068;
1;06:57:56:478;-5.553351;-0.14963761;10.972627;12.298806258168984;
1;06:57:56:488;-1.3970166;1.79206;9.1829605;9.459910077883437;
1;06:57:56:498;-1.6795325;-2.4959552;15.247474;15.541431305903997;
1;06:57:56:509;-8.589199;1.067814;8.523358;12.147518052022757;
1;06:57:56:519;-2.088941;-0.5506664;11.390414;11.593465714169556;
1;06:57:56:529;-11.365275;0.15083471;7.9990277;13.898800892874378;
1;06:57:56:540;-3.989937;-1.7178397;14.96376;15.581549938511513;
1;06:57:56:549;-2.385822;0.25258827;8.53892;8.869561046589604;
1;06:57:56:559;-12.963405;-1.7585411;10.006566;16.470388023377744;
1;06:57:56:569;-11.021708;-2.2864625;8.588001;14.158379737698626;
1;06:57:56:579;-3.095703;0.51714754;6.867768;7.5509636270331315;
1;06:57:56:589;-4.950012;0.010773907;9.498995;10.711379116534202;
1;06:57:56:600;-8.444349;-1.4796166;8.451532;12.038467422225162;
1;06:57:56:610;-9.242816;-0.9840169;7.651869;12.039478213134124;
1;06:57:56:621;-1.9416976;2.5462334;11.081563;11.5349267406477;
1;06:57:56:631;-4.426879;-0.60812724;7.4567413;8.693104644450969;
1;06:57:56:642;3.4452562;-0.6392518;13.119028;13.578929600729305;
1;06:57:56:653;-6.943185;0.9516952;6.6870055;9.686567101628702;
1;06:57:56:664;-9.31105;-0.78529817;4.343082;10.304111467504882;
1;06:57:56:675;-1.9177556;0.8439561;8.161834;8.426480705929514;
1;06:57:56:686;-5.5521536;-1.3718776;18.15643;19.035870872718498;
1;06:57:56:697;0.61291564;-2.5785553;9.111135;9.488803087492284;
1;06:57:56:708;-1.6436194;1.8471266;3.1531637;4.00696910290079;
1;06:57:56:719;-2.3427265;-0.38067806;13.359646;13.56883998649485;
1;06:57:56:729;2.9412768;-1.6292542;9.78989;10.351209088896368;
1;06:57:56:740;1.5227122;-3.526659;13.759478;14.285629435695979;
1;06:57:56:750;0.4285621;-0.65242;14.07192;14.093553495200219;
1;06:57:56:761;-4.794389;0.62728083;9.941922;11.055381769276588;
1;06:57:56:772;0.047884032;3.5877113;8.360553;9.097956048489896;
1;06:57:56:783;2.4504654;-2.847903;19.36191;19.723054298196548;
1;06:57:56:793;-4.7536874;1.0941502;7.050924;8.573811208993405;
1;06:57:56:803;-5.765238;0.9923966;7.428011;9.455060171241476;
1;06:57:56:814;0.5374983;1.0187328;10.80623;10.867443046060789;
1;06:57:56:825;3.5697548;-0.17717093;11.95784;12.480563502183355;
1;06:57:56:835;2.1296425;-2.2493525;14.117411;14.453243242759564;
1;06:57:56:845;-2.2900538;1.2066777;3.7984009;4.596549290593909;
1;06:57:56:856;-5.839458;-1.7477672;8.443152;10.413490319755832;
1;06:57:56:867;-0.18315643;3.0681696;6.621165;7.299797044832956;
1;06:57:56:878;1.3072342;-5.0374002;18.346767;19.07060934708539;
1;06:57:56:888;0.8379706;-1.1851299;7.8529816;7.985990655700124;
1;06:57:56:898;-3.940856;2.9005754;6.505046;8.139982055344356;
1;06:57:56:909;-3.6176388;-1.5646108;12.849681;13.440596254837315;
1;06:57:56:919;0.010773907;2.0925324;9.861717;10.081283192778004;
1;06:57:56:930;3.0777464;-0.047884032;12.455834;12.830534658731343;
1;06:57:56:940;-2.3822308;-0.9660604;10.067618;10.390632342572594;
1;06:57:56:950;-9.403227;0.7661445;8.257602;12.537768868238055;
1;06:57:56:961;1.8423382;-2.0171149;11.798626;12.110761639358259;
1;06:57:56:972;-3.4440591;-0.16639702;8.990228;9.628781059023888;
1;06:57:56:983;-9.6845455;0.0047884034;8.845378;13.11606489947597;
1;06:57:56:992;-3.903746;2.9400797;6.133945;7.842740788069414;
1;06:57:57:003;-0.9780314;0.92416185;8.452729;8.559162018303335;
1;06:57:57:013;2.4959552;-1.910573;12.849681;13.228544317710282;
1;06:57:57:024;2.541445;-4.235343;16.935387;17.640985693002055;
1;06:57:57:034;-12.300211;2.9245174;2.920926;12.976124479926765;
1;06:57:57:045;-6.1686606;-1.2234371;8.579621;10.637625340083028;
1;06:57:57:056;-8.337808;0.6991069;6.6415157;10.682579647939457;
1;06:57:57:067;4.1012673;-0.15083471;16.774975;17.26971105496195;
1;06:57:57:078;-8.77834;-2.9867666;11.58674;14.840234986781397;
1;06:57:57:089;0.06823475;-1.1168951;12.629414;12.678887812698406;
1;06:57:57:099;-6.1519012;2.707842;9.940725;11.999846775348257;
1;06:57:57:110;-1.1839328;-1.6711528;13.905523;14.055533213507612;
1;06:57:57:121;-2.9137435;0.4417302;8.579621;9.071655279186624;
1;06:57:57:132;-5.183447;-1.496376;8.619126;10.168411813843791;
1;06:57:57:142;-4.247314;-0.08020575;7.8613615;8.935721267082377;
1;06:57:57:153;-0.7781156;2.44448;10.224439;10.541351635313017;
1;06:57:57:164;-2.5438392;-4.5178585;13.486538;14.448835934540929;
1;06:57:57:175;-6.7001734;1.4030021;9.640253;11.823502517950939;
1;06:57:57:185;-1.3742718;0.9744401;9.105149;9.259692088995607;
1;06:57:57:196;-4.819528;-0.79966336;6.493075;8.125720652385576;
1;06:57:57:206;5.887342;-3.1771057;16.938976;18.21218591548836;
1;06:57:57:216;-9.457097;2.4265234;11.463438;15.057725838315525;
1;06:57:57:227;-8.265982;2.6683378;5.556942;10.311453841348737;
1;06:57:57:237;-5.040992;-1.009156;11.098322;12.231220408673325;
1;06:57:57:247;-1.6687586;2.6288335;8.492233;9.045084036483619;
1;06:57:57:258;-5.3378725;-3.5087025;11.63582;13.273891573678219;
1;06:57:57:269;-2.1511903;3.7433343;9.854534;10.758811001228539;
1;06:57:57:280;-3.1256304;-2.2146366;15.726314;16.186139730793307;
1;06:57:57:290;-1.9716251;-0.62847793;10.837354;11.033155584680284;
1;06:57:57:301;-1.4772224;-1.5263035;12.472593;12.65216887807525;
1;06:57:57:311;-5.282806;2.9245174;3.1292217;6.800946158612326;
1;06:57:57:321;-7.6363063;-2.6443958;12.5982895;14.967395187579296;
1;06:57:57:332;-2.6910827;-3.3387144;7.9870567;9.06542963490049;
1;06:57:57:342;-0.21068975;1.5035586;14.194025;14.274993394091894;
1;06:57:57:353;-3.8594532;1.6867151;8.080431;9.112285796736527;
1;06:57:57:364;-4.059369;0.5446809;7.469909;8.519078105784741;
1;06:57:57:374;-0.58298814;-0.93972415;8.519767;8.59123853571979;
1;06:57:57:385;0.90141696;0.50517654;11.9614315;12.005981226250444;
1;06:57:57:396;-3.6176388;-0.142455;11.401189;11.962220166161085;
1;06:57:57:407;-6.4583592;1.9716251;4.392163;8.055358562764729;
1;06:57:57:417;-8.9842415;-3.9121256;7.1586633;12.135394173575364;
1;06:57:57:428;-0.5590461;3.4344823;6.6726403;7.525445371102449;
1;06:57:57:439;-2.054225;-2.9783869;6.9383965;7.825086296995064;
1;06:57:57:450;-10.542868;1.2521675;7.60997;13.062603963775873;
1;06:57:57:460;0.6859388;-1.1599907;13.306973;13.375037647800402;
1;06:57:57:471;-4.0282445;2.2948422;5.5581393;7.237814824927576;
1;06:57:57:481;-4.6926355;-5.0876784;11.550826;13.465767302240371;
1;06:57:57:492;-2.597709;-0.8331822;6.194997;6.769067183765432;
1;06:57:57:502;-10.113108;-4.3718123;10.66976;15.337257767608854;
1;06:57:57:513;-8.494628;-1.9381063;8.36175;12.076167294647764;
1;06:57:57:524;2.8431146;2.0266917;19.378668;19.69069682006621;
1;06:57:57:534;-6.5684924;2.6312277;6.609194;9.682452849793618;
1;06:57:57:545;-1.5933412;-2.2720973;13.18846;13.477263908377497;
1;06:57:57:555;-2.8179753;1.2904748;3.9324763;5.007062882662599;
1;06:57:57:565;-4.092888;-0.8858546;15.172056;15.739369513597007;
1;06:57:57:576;-1.0366893;0.8559271;14.426262;14.488767285086963;
1;06:57:57:586;-9.248801;-2.9041667;10.830172;14.535030800150652;
1;06:57:57:597;-8.167819;0.07062895;7.595605;11.153988905582585;
1;06:57:57:608;1.3802572;0.8631097;11.967417;12.077629760221996;
1;06:57:57:619;-6.053739;-0.5530606;5.579687;8.251457316835767;
1;06:57:57:629;-6.853402;-0.17238252;9.163807;11.444395894397193;
1;06:57:57:640;1.1971009;1.3802572;9.976639;10.142558003241643;
1;06:57:57:650;-2.6623523;0.2813187;10.365696;10.705835508750809;
1;06:57:57:661;-0.4165911;-1.3838485;13.208811;13.287636332202768;
1;06:57:57:671;-1.1420342;1.8531121;6.3362546;6.699730358106802;
1;06:57:57:681;-13.657723;-1.8124107;8.078036;15.971002528111054;
1;06:57:57:692;-2.6755204;0.78050977;13.221979;13.512525611027417;
1;06:57:57:703;-4.2197804;0.45609543;12.070368;12.794856730915296;
1;06:57:57:713;-5.853823;-2.9113493;14.4370365;15.84838269764014;
1;06:57:57:724;1.9452889;-2.6898856;14.026431;14.413896298161044;
1;06:57:57:734;-8.801085;-0.59376204;11.61547;14.585294115764665;
1;06:57:57:745;-3.1998506;1.0546459;9.540894;10.11829860875038;
1;06:57:57:756;0.3842694;0.2753332;9.97185;9.983049140498185;
1;06:57:57:767;-9.508572;-2.0015526;6.0800753;11.462393264523161;
1;06:57:57:777;-2.4983494;3.2956185;10.759542;11.526951265132945;
1;06:57:57:788;-3.7217865;2.1547816;7.2604165;8.438508602187902;
1;06:57:57:798;1.4101849;0.32800564;12.818556;12.900061058668784;
1;06:57:57:808;-5.032612;-2.1284454;12.464214;13.609339121651903;
1;06:57:57:819;-5.4192758;-3.321955;9.783905;11.667422097589524;
1;06:57:57:829;-6.2105594;0.60573304;11.076775;12.71349299180734;
1;06:57:57:840;-1.1731589;-0.92057055;9.436746;9.553843450811678;
1;06:57:57:850;-5.804742;1.2294226;3.157952;6.721544828867439;
1;06:57:57:861;-7.6626425;-1.7836803;7.120356;10.611176957153038;
1;06:57:57:871;1.1228806;3.0585926;5.141548;6.086983547979977;
1;06:57:57:882;0.6368576;-0.5422867;15.386337;15.409057113843641;
1;06:57:57:892;-5.625177;-0.90141696;10.1143055;11.608374078865774;
1;06:57:57:902;-7.517793;-2.730587;10.024523;12.82436688442467;
1;06:57:57:913;0.19512744;-2.1811178;14.578294;14.741845414519375;
1;06:57:57:923;-5.3498435;-2.0685902;11.291056;12.664431793081029;
1;06:57:57:934;-1.7357962;2.3463178;9.56723;10.002504035245257;
1;06:57:57:945;-8.92319;-0.5650316;6.879739;11.281550944955788;
1;06:57:57:956;-4.250905;1.9847932;8.698134;9.882668523531288;
1;06:57:57:967;-0.9780314;-1.5251064;15.102624;15.210908910315966;
1;06:57:57:978;-3.8977604;2.6922798;9.543288;10.654353982718169;
1;06:57:57:988;-6.513426;-3.5553896;9.109938;11.749744169006803;
1;06:57:57:998;-1.8507179;0.18555063;9.94312;10.115593202085487;
1;06:57:58:009;-3.690662;-2.2709002;12.873623;13.583377081365676;
1;06:57:58:019;-1.6962919;3.1783028;12.676101;13.178108812719783;
1;06:57:58:030;-11.451467;-2.3570917;8.259995;14.315009417702324;
1;06:57:58:040;-7.9487495;1.1180922;7.5932107;11.049416256498576;
1;06:57:58:051;-4.333505;-3.6260185;10.2974615;11.745850175184877;
1;06:57:58:061;-1.780089;2.0039468;9.876082;10.233353285713088;
1;06:57:58:071;-6.7109475;-4.674679;8.785523;12.003118745523624;
1;06:57:58:081;-1.7441759;1.5394717;7.1634517;7.5317438367331615;
1;06:57:58:091;-5.255273;0.2741361;11.593922;12.732323454376855;
1;06:57:58:101;-1.2689269;1.4101849;8.880095;9.080466935171462;
1;06:57:58:112;-4.2904096;-0.053869538;12.277467;13.005641006811116;
1;06:57:58:123;-11.749545;0.8283938;8.360553;14.44426776745331;
1;06:57:58:134;0.9648633;-3.846285;13.333309;13.91049959208393;
1;06:57:58:144;-3.630807;2.5893292;9.812635;10.778460067004731;
1;06:57:58:155;-4.1946416;-2.2732944;10.296265;11.347949383046934;
1;06:57:58:166;0.25378537;0.94451255;7.764396;7.825749750750847;
1;06:57:58:176;-8.439561;-4.5274353;15.995662;18.643633028201194;
1;06:57:58:186;1.2653356;-0.8762778;12.520478;12.6147262014945;
1;06:57:58:197;-5.085284;0.62728083;6.242881;8.076333177424853;
1;06:57:58:208;-8.192958;-0.08619126;5.7867856;10.030896332112397;
1;06:57:58:218;2.6839;1.1168951;11.095928;11.470414292985863;
1;06:57:58:229;-0.23223756;-2.1033063;13.170504;13.339414799106338;
1;06:57:58:240;-8.747216;-0.79128367;13.6673;16.246076374269382;
1;06:57:58:250;-1.9955671;1.5933412;11.45865;11.739747464584857;
1;06:57:58:261;-2.5677812;-1.4101849;9.982624;10.40360077365607;
1;06:57:58:272;-3.6834793;-0.81043726;7.9236107;8.775445180180409;
1;06:57:58:282;-9.26197;3.2465374;11.501745;15.119994288852158;
1;06:57:58:293;-6.408081;-2.27928;8.74961;11.082161021556889;
1;06:57:58:303;4.092888;0.9756372;8.945934;9.886017266945458;
1;06:57:58:314;-1.6627731;0.130484;10.562021;10.692900782118501;
1;06:57:58:325;-8.24204;-3.4524388;9.744401;13.22134294622743;
1;06:57:58:334;-1.1240777;2.1068976;10.1861315;10.462305619087386;
1;06:57:58:345;-3.8498764;-5.2720323;13.266272;14.78546018099105;
1;06:57:58:355;1.4329298;4.794389;6.7085533;8.369237938830382;
1;06:57:58:365;-6.619968;-3.819949;7.5932107;10.773710140902962;
1;06:57:58:376;-8.3150625;-4.1096473;7.703344;12.056988499608329;
1;06:57:58:387;-3.2680852;1.8447324;8.590396;9.374343645643735;
1;06:57:58:398;-3.5793316;-0.4237737;12.504915;13.013996512394238;
1;06:57:58:409;-7.9224133;-3.3135753;8.525752;12.100944646106147;
1;06:57:58:420;-2.9724014;-0.61770403;12.984953;13.335131968934775;
1;06:57:58:430;-8.019379;-4.3993454;13.226768;16.08141973044902;
1;06:57:58:440;-2.2637177;3.3171666;5.112818;6.501454997440207;
1;06:57:58:450;-9.24521;-3.6846764;7.463924;12.440293194912675;
1;06:57:58:461;-2.6922798;3.6224272;6.4643445;7.8840408502349755;
1;06:57:58:472;0.20470424;0.39624038;9.5013895;9.511851497405297;
1;06:57:58:483;-1.8435353;0.5351041;11.765107;11.920683355009084;
1;06:57:58:494;-11.129447;-4.590882;10.981006;16.29488523777045;
1;06:57:58:505;-4.5142674;-0.49559975;10.498574;11.438719304030773;
1;06:57:58:516;-7.2472486;-0.91937345;7.2687964;10.305496704628146;
1;06:57:58:527;0.6871359;0.82121116;8.965088;9.028806573658073;
1;06:57:58:537;0.94092125;1.0031705;5.8107276;5.971284817407847;
1;06:57:58:548;-2.0805612;3.1124623;12.920309;13.451785987914334;
1;06:57:58:559;-7.85777;-4.5322237;16.212337;18.577553344863528;
1;06:57:58:570;0.93732995;-1.7298107;9.205706;9.413599330540737;
1;06:57:58:581;-2.7569232;-2.0769699;13.461399;13.896894895772244;
1;06:57:58:592;5.329493;-0.7230489;18.50718;19.27283025619186;
1;06:57:58:601;-11.310209;-0.6967127;-0.009576807;11.331652198719054;
1;06:57:58:611;-6.817489;0.78649527;9.309854;11.565902951520231;
1;06:57:58:621;-8.049306;-0.3184288;8.336611;11.592747729798912;
1;06:57:58:631;4.820725;-0.10055647;7.9547353;9.302005871446324;
1;06:57:58:642;-0.30645782;-3.572149;16.757017;17.136271310690482;
1;06:57:58:653;-9.473856;0.88944596;9.836577;13.685880103558718;
1;06:57:58:663;-6.123171;-3.2489316;10.25676;12.379414089062397;
1;06:57:58:675;-3.4859576;-0.36152446;9.600749;10.22042002432546;
1;06:57:58:686;2.5007436;1.5777789;14.595054;14.891564642768927;
1;06:57:58:696;0.7110779;-0.17956513;12.423512;12.445140849412624;
1;06:57:58:706;-4.975151;0.10414778;9.482236;10.70867749167027;
1;06:57:58:717;7.219715;0.023942016;13.603854;15.400964662137696;
1;06:57:58:728;-6.0944405;0.7015011;6.903681;9.235535731036821;
1;06:57:58:738;1.0319009;0.59256494;10.497377;10.564605322496302;
1;06:57:58:748;2.6839;-3.9480386;16.998833;17.656462595512124;
1;06:57:58:758;-6.331466;-2.4241292;4.9643774;8.402910781802554;
1;06:57:58:768;1.6196774;1.70946;8.49343;8.813850894491694;
1;06:57:58:779;-7.9463553;0.5650316;8.954314;11.985138909812434;
1;06:57:58:789;5.6060233;-3.5625722;19.615694;20.70977708579596;
1;06:57:58:800;-2.0446482;-2.9652188;10.617087;11.211407056804216;
1;06:57:58:810;-3.5350387;1.0259154;7.0461354;7.949655911658663;
1;06:57:58:820;-0.8439561;1.7130513;8.687361;8.894776137795931;
1;06:57:58:830;1.388637;0.34715924;10.9822035;11.075090560370608;
1;06:57:58:840;1.7357962;-0.09816227;9.776723;9.930102395934798;
1;06:57:58:851;5.368997;-1.079785;14.18325;15.20383708105637;
1;06:57:58:861;-6.491878;1.6376339;4.817134;8.248097055776194;
1;06:57:58:871;0.8571242;-1.496376;12.162544;12.284188654264257;
1;06:57:58:881;4.5896845;0.46567222;10.02572;11.036172519575613;
1;06:57:58:892;-0.37469256;2.9771898;10.649409;11.064084731565718;
1;06:57:58:903;5.2540755;-2.36188;9.374496;11.002952872925892;
1;06:57:58:914;-4.4675803;-5.815516;3.3363202;8.056707149346563;
1;06:57:58:925;2.2110453;3.0813377;6.1040173;7.186263799091759;
1;06:57:58:934;-3.6152446;0.92416185;6.161478;7.20332412279003;
1;06:57:58:944;3.2453403;-0.61052144;11.300632;11.77324374114783;
1;06:57:58:955;1.9764135;-0.60333884;9.029732;9.263168034935836;
1;06:57:58:966;0.21428105;2.9496565;4.534618;5.413792635094254;
1;06:57:58:976;-2.9999347;-5.555745;11.92911;13.49702025130223;
1;06:57:58:985;-1.4748282;-1.3599066;11.283873;11.460813681590876;
1;06:57:58:995;7.1395097;-1.887828;7.5429325;10.55615115799825;
1;06:57:59:006;1.9728222;5.2852;3.074155;6.42462411218821;
1;06:57:59:016;-0.6404489;2.0913353;3.9947255;4.554304522318072;
1;06:57:59:026;4.5406036;-2.4157495;17.934965;18.657864448047604;
1;06:57:59:036;-2.882619;-2.7940333;18.722658;19.148212781729136;
1;06:57:59:046;-5.5150437;-2.835932;9.229648;11.119559683006576;
1;06:57:59:056;4.3777976;-3.6715083;7.047333;9.072484902153581;
1;06:57:59:067;2.9269116;1.5179238;12.758701;13.177836127006374;
1;06:57:59:078;4.747702;3.4739866;4.187459;7.221085339914501;
1;06:57:59:089;-9.679757;-2.4528596;15.702372;18.608564870065546;
1;06:57:59:100;5.0146556;3.2489316;10.184934;11.808268116995462;
1;06:57:59:111;3.7361517;-4.509479;13.623008;14.82837042489861;
1;06:57:59:122;-0.8726865;0.36870706;4.0066967;4.117176844892522;
1;06:57:59:133;6.5218053;1.1683705;14.4214735;15.870662547212703;
1;06:57:59:142;2.4181437;1.9021933;8.644265;9.175460712393027;
1;06:57:59:152;-1.1671734;-0.17477672;8.774749;8.8537592775457;
1;06:57:59:163;-2.9281087;5.2385135;3.0921116;6.751073963770997;
1;06:57:59:173;-6.943185;0.36750996;10.625467;12.698166746452149;
1;06:57:59:184;2.5354595;0.1388637;11.688493;11.961133321184429;
1;06:57:59:194;-7.463924;-6.015432;14.501679;17.38373593052839;
1;06:57:59:204;-6.31351;-1.3946224;8.942344;11.034984788490945;
1;06:57:59:215;-1.5059528;-2.2876596;8.607155;9.032408115353551;
1;06:57:59:226;-8.832211;0.04070143;6.2045736;10.793809911123178;
1;06:57:59:237;1.1372458;-0.8810662;13.101071;13.179821219497997;
1;06:57:59:248;-6.3350577;-2.6360161;7.7548194;10.354649451274971;
1;06:57:59:259;1.1216835;0.5710171;16.587029;16.634715059693313;
1;06:57:59:270;-2.3295584;-0.61052144;7.777564;8.14187184924159;
1;06:57:59:280;-3.0322564;2.2134395;10.478224;11.130456850558671;
1;06:57:59:290;-5.377377;0.664391;8.991425;10.497776704372374;
1;06:57:59:301;-5.602432;-0.5674258;7.6291237;9.482232997282132;
1;06:57:59:312;0.6596026;-0.12449849;11.118672;11.138916226990581;
1;06:57:59:323;7.2149267;5.907693;16.451757;18.91074649525535;
1;06:57:59:333;-3.9001546;-6.489484;12.304999;14.447754492075275;
1;06:57:59:344;8.661025;0.50038815;17.223886;19.285382933015534;
1;06:57:59:354;4.3538556;4.0880995;8.471883;10.365395018010386;
1;06:57:59:365;-0.21787235;1.8974048;0.34596214;1.9409541442186924;
1;06:57:59:375;-0.7326257;0.9995792;12.036849;12.100480604479104;
1;06:57:59:386;5.6670756;0.21068975;12.723985;13.930539159151323;
1;06:57:59:397;5.3079453;-5.0721164;15.7586355;17.384913847706795;
1;06:57:59:408;0.7062895;-0.6739678;6.9647326;7.032821547462799;
1;06:57:59:418;5.2301335;2.634819;12.921507;14.18668097598088;
1;06:57:59:429;0.8439561;-1.4652514;11.261127;11.387370666372433;
1;06:57:59:439;1.3551182;2.171541;6.9000893;7.35956315692989;
1;06:57:59:450;3.618836;-1.292869;11.742362;12.35518346572319;
1;06:57:59:459;9.871294;-0.29448682;9.3733;13.615722857621144;
1;06:57:59:470;9.635465;-1.7465701;10.684125;14.492867655872146;
1;06:57:59:481;3.5936968;1.2677298;9.776723;10.493145839982432;
1;06:57:59:491;6.611588;-0.12808979;8.583213;10.835176360028926;
1;06:57:59:501;8.1163435;-2.707842;6.769605;10.910316037251848;
1;06:57:59:512;5.117606;3.7553053;7.728483;10.00108331534483;
1;06:57:59:522;9.390059;-1.1767502;9.973047;13.74844074077982;
1;06:57:59:533;7.4375877;-0.79248077;10.517728;12.906135318422082;
1;06:57:59:543;14.228741;-2.3403323;14.4130945;20.388023660695083;
1;06:57:59:553;8.637083;-0.06703765;10.34774;13.478851141717751;
1;06:57:59:564;17.985243;-6.0561333;12.577939;22.767307279555894;
1;06:57:59:578;-4.582502;-9.102755;11.923124;15.685036028795388;
1;06:57:59:587;4.5896845;-1.328782;5.425261;7.229406640488219;
1;06:57:59:598;5.3235073;2.7928362;16.528372;17.587686635581335;
1;06:57:59:608;10.887632;-2.754529;10.309433;15.245077370522038;
1;06:57:59:618;0.3184288;3.108871;11.815386;12.221694942621822;
1;06:57:59:628;14.268245;-3.241749;6.909666;16.181323666366207;
1;06:57:59:638;11.075577;-4.0701427;11.845313;16.719626145267124;
1;06:57:59:648;17.925388;-0.6548142;15.10023;23.44707356556597;
1;06:57:59:658;10.205285;-6.301539;12.597093;17.393791301210847;
1;06:57:59:669;13.391967;0.06584055;2.8060043;13.68293693113885;
1;06:57:59:680;-15.73589;3.0777464;1.839944;16.139274016246343;
1;06:57:59:690;11.656171;12.58153;25.90167;31.065378466354026;
1;06:57:59:701;6.7229185;-16.170439;-1.9285295;17.61817139713728;
1;06:57:59:711;21.01271;-6.646304;22.015882;31.151348191380496;
1;06:57:59:721;19.507956;2.5318682;17.666815;26.44025408601083;
1;06:57:59:731;1.1923125;-5.1690817;15.61618;16.492607541429734;
1;06:57:59:741;7.953538;4.0521865;1.9728222;9.14171835074221;
1;06:57:59:751;-12.275072;-1.8590976;5.1523223;13.441728077555263;
1;06:57:59:761;-0.51235914;-2.1511903;13.870808;14.045976077500864;
1;06:57:59:771;21.999123;1.5981296;14.358027;26.31859295176962;
1;06:57:59:781;15.873557;-8.853758;10.645818;21.064004634916067;
1;06:57:59:791;-3.8139634;-0.21667525;6.2991447;7.366986592568098;
1;06:57:59:801;16.68998;-1.3299791;4.2401314;17.2714498093132;
1;06:57:59:812;-3.1783028;1.8579005;8.437167;9.205389550548295;
1;06:57:59:822;1.4137762;-4.679467;8.364143;9.687882741935121;
1;06:57:59:833;2.6767175;0.41060558;1.5119383;3.101511150098379;
1;06:57:59:843;12.421119;-2.6743233;9.228451;15.703519021020565;
1;06:57:59:853;13.261483;2.6767175;5.5377884;14.618442206304422;
1;06:57:59:864;7.289147;-1.6891093;12.764687;14.796012361833286;
1;06:57:59:874;-0.6655881;-1.3503298;8.596381;8.727208126435906;
1;06:57:59:887;12.846089;1.697489;9.399636;16.008018391794508;
1;06:57:59:898;8.754398;1.0869676;10.899603;14.022208446315226;
1;06:57:59:909;5.5401826;-0.78050977;7.914034;9.69199429518862;
1;06:57:59:919;10.935516;0.18195933;12.006922;16.241452830306237;
1;06:57:59:929;6.0585275;0.25617957;10.930728;12.500087890316012;
1;06:57:59:940;6.9348054;0.8415619;10.66976;12.753177022605852;
1;06:57:59:951;8.371326;-0.46926352;10.329783;13.304275766162899;
1;06:57:59:961;0.5554548;-0.142455;5.483919;5.513818374725269;
1;06:57:59:972;1.6639702;-0.017956512;9.512163;9.65662291957895;
1;06:57:59:982;1.4903905;-0.9696517;8.479065;8.663488343238969;
1;06:57:59:993;4.012682;0.6344634;9.485827;10.319160668595915;
1;06:58:00:004;-2.5785553;-0.79846627;10.609905;10.947903464636328;
1;06:58:00:013;-3.4572272;-5.7508726;11.298238;13.140591325387886;
1;06:58:00:023;-7.487866;-3.0442274;15.362395;17.35910866272958;
1;06:58:00:033;4.045004;-1.0115502;15.510836;16.06148540691559;
1;06:58:00:043;-5.8107276;-1.9009962;4.345476;7.50076696924742;
1;06:58:00:054;-3.2321723;7.0305734;5.282806;9.369308167995916;
1;06:58:00:064;-1.6292542;0.34117374;9.293094;9.440998565748066;
1;06:58:00:075;-5.1882353;3.4009635;13.046005;14.44585015393424;
1;06:58:00:085;-4.831499;-4.3885717;12.978968;14.527785415274609;
1;06:58:00:095;3.7720647;-3.4332852;14.706384;15.565784276313185;
1;06:58:00:105;1.103727;-1.021127;14.726735;14.803298087836499;
1;06:58:00:115;-2.31639;1.3132197;6.631939;7.146525209554695;
1;06:58:00:125;-0.6967127;1.2449849;5.2444987;5.435086295557885;
1;06:58:00:135;1.6687586;1.5729905;8.576031;8.877350831643747;
1;06:58:00:145;0.5626374;-1.0773908;11.04565;11.112322152155294;
1;06:58:00:156;-3.1364043;-4.325125;7.9990277;9.619157082790489;
1;06:58:00:166;-5.566519;0.08020575;10.299856;11.708099978328638;
1;06:58:00:177;-5.7269306;-5.1235914;14.652514;16.545244549038856;
1;06:58:00:187;3.9600096;-2.0638018;10.606314;11.508033931593317;
1;06:58:00:197;-3.620033;2.6779146;9.446322;10.464648727302787;
1;06:58:00:207;1.6208745;1.021127;13.887567;14.019074116606776;
1;06:58:00:217;-5.3318872;-2.9616275;11.403583;12.93220625485706;
1;06:58:00:228;-8.865729;-0.5410896;8.655039;12.40175933662457;
1;06:58:00:239;2.3582888;0.46567222;12.707226;12.93259325826762;
1;06:58:00:248;-5.66109;-0.9792285;10.892421;12.314692732849334;
1;06:58:00:258;-7.9487495;-3.2022448;13.409924;15.914240360904708;
1;06:58:00:269;-12.384008;-6.4128695;10.556035;17.490523906209095;
1;06:58:00:278;-6.4787097;0.18435353;8.810662;10.937798545032669;
1;06:58:00:288;-2.5677812;0.9756372;6.123171;6.711079605960509;
1;06:58:00:299;3.0825348;-0.9720459;18.703505;18.980726404790612;
1;06:58:00:309;-2.6886885;0.10654198;12.48217;12.768906282503885;
1;06:58:00:320;-15.289372;-2.123657;4.4568067;16.066671698056354;
1;06:58:00:331;4.277241;5.9184666;11.8022175;13.878594560073099;
1;06:58:00:342;-2.5390508;-2.4791958;11.257536;11.803613943365965;
1;06:58:00:352;-8.468291;-0.7422025;6.721721;10.837174854438937;
1;06:58:00:362;-9.543288;-3.1998506;11.110293;14.991731526416695;
1;06:58:00:373;-6.3422403;1.4975731;9.683349;11.671931214305728;
1;06:58:00:383;-3.4871547;0.5662287;5.243302;6.32242642240297;
1;06:58:00:393;7.4375877;1.7968484;12.7814455;14.896701913687924;
1;06:58:00:404;-11.870452;-2.5091233;14.426262;18.849943595012594;
1;06:58:00:415;-11.394006;-2.0841527;5.163096;12.681664538952118;
1;06:58:00:426;-4.3718123;0.4201824;7.9667063;9.09712623241409;
1;06:58:00:436;-1.364695;2.1535845;11.767501;12.040531373322073;
1;06:58:00:447;-11.98298;-5.922058;8.953117;16.087910424178965;
1;06:58:00:457;-5.6000376;1.8734628;10.809821;12.317569521658825;
1;06:58:00:468;-6.030994;0.40821138;9.293094;11.086077204678215;
1;06:58:00:478;-2.0362685;0.24540567;12.178107;12.349611691690832;
1;06:58:00:489;-2.9400797;-1.4209588;14.202404;14.5729707067477;
1;06:58:00:498;-7.7679873;0.7781156;10.777499;13.307951674047702;
1;06:58:00:508;-8.263587;0.9588778;10.939108;13.743012473460945;
1;06:58:00:519;-2.3451207;0.2908955;8.517372;8.839108816251068;
1;06:58:00:530;0.022744916;-5.7664347;11.552023;12.911294390073694;
1;06:58:00:540;-9.848549;-0.110133275;11.669339;15.270216752008476;
1;06:58:00:550;-4.5394063;0.09935937;9.403227;10.442066769698974;
1;06:58:00:561;-1.6424223;2.6180596;9.794679;10.270711674978852;
1;06:58:00:572;1.0462662;5.0397944;14.164097;15.07036312523897;
1;06:58:00:582;-2.6922798;-0.7254431;7.3992805;7.907211305580717;
1;06:58:00:592;-5.5641246;1.0175357;10.386047;11.82644653505373;
1;06:58:00:602;-0.47884035;2.9640217;8.277952;8.80563455005382;
1;06:58:00:613;4.4280763;2.2481554;14.092271;14.941692194976246;
1;06:58:00:624;-4.855441;-5.6060233;12.124237;14.212668256342429;
1;06:58:00:635;-3.6056678;-0.36870706;7.9583263;8.744812217689768;
1;06:58:00:645;-1.7166426;-0.8535329;9.275137;9.471195522039402;
1;06:58:00:656;-2.0685902;0.59974754;8.892065;9.149184694081011;
1;06:58:00:667;2.8981812;0.6464345;12.666524;13.00992557442772;
1;06:58:00:678;-6.3865333;-3.5302503;10.724827;12.971984606973395;
1;06:58:00:688;1.7250223;0.19512744;3.8510735;4.224280229462914;
1;06:58:00:698;1.7298107;3.0023289;2.731784;4.412354049214006;
1;06:58:00:708;0.2693477;0.5674258;15.215152;15.228110691238404;
1;06:58:00:719;-0.5434838;0.36391866;12.58153;12.59851983474119;
1;06:58:00:729;2.5270798;0.32202014;8.591593;8.961322327177083;
1;06:58:00:739;-5.257667;-0.5327099;9.19134;10.602243984866998;
1;06:58:00:749;5.3642087;4.5178585;12.795811;14.591728772972186;
1;06:58:00:759;2.315193;-2.7832594;11.888409;12.427426039560645;
1;06:58:00:770;-9.794679;-2.5127146;8.39886;13.144972944844852;
1;06:58:00:780;6.1183825;1.3311762;15.446193;16.66707844543398;
1;06:58:00:791;7.303512;3.3494883;5.2887917;9.619338711475637;
1;06:58:00:802;-6.6870055;-5.5868697;11.292253;14.263383971360131;
1;06:58:00:813;-4.2784386;-2.6755204;10.01734;11.216529732747356;
1;06:58:00:823;-0.6823475;-1.6651673;9.317036;9.489232436112127;
1;06:58:00:834;-7.884106;-5.151125;13.006501;16.05809156430178;
1;06:58:00:844;0.36870706;0.29448682;14.115016;14.122901423025375;
1;06:58:00:854;-3.9707835;5.872977;7.773973;10.521104221192903;
1;06:58:00:865;-8.222886;0.21787235;10.267534;13.156198968131429;
1;06:58:00:876;-6.5469446;0.4357447;9.811439;11.803248743807915;
1;06:58:00:887;-5.647922;-1.7513585;12.520478;13.846611605519293;
1;06:58:00:897;-7.4567413;2.5845408;6.5960255;10.2854459137192;
1;06:58:00:908;-10.900801;-2.529474;11.972205;16.387781643865996;
1;06:58:00:918;-9.876082;1.1133038;8.048109;12.78860851267368;
1;06:58:00:929;-3.6511576;-4.188656;14.334085;15.373412011489187;
1;06:58:00:939;-4.333505;-2.753332;17.117346;17.870748374394886;
1;06:58:00:950;-9.682152;-3.478775;7.735666;12.871925357239443;
1;06:58:00:961;-2.9700072;0.1592144;9.053674;9.529706185806202;
