Round;Timestamp;AccX;AccY;
0;04:03:43:626;-5.825093;3.2501287;
0;04:03:43:637;-5.825093;3.2501287;
0;04:03:43:647;-0.9600749;4.6232033;
0;04:03:43:657;3.3614593;-2.1535845;
0;04:03:43:667;8.602366;4.355053;
0;04:03:43:677;-0.6488287;4.7022123;
0;04:03:43:688;-4.175488;1.3012487;
0;04:03:43:698;-5.931635;5.069722;
0;04:03:43:708;-2.9963434;3.1256304;
0;04:03:43:718;4.485537;1.4449008;
0;04:03:43:729;5.0421886;2.6527755;
0;04:03:43:740;-1.2282255;2.622848;
0;04:03:43:750;0.61530983;2.292448;
0;04:03:43:761;0.5315128;2.789245;
0;04:03:43:772;-1.7154455;4.9069166;
0;04:03:43:783;3.9085343;2.005144;
0;04:03:43:794;3.1902738;1.1013328;
0;04:03:43:805;-0.06943185;0.9516952;
0;04:03:43:816;0.78050977;5.0182467;
0;04:03:43:827;5.555745;6.9838862;
0;04:03:43:837;-4.5980644;2.4672248;
0;04:03:43:847;2.505532;3.3602622;
0;04:03:43:857;7.7548194;0.6548142;
0;04:03:43:867;-8.3629465;-1.6591818;
0;04:03:43:877;-1.412579;4.510676;
0;04:03:43:888;3.240552;2.4384944;
0;04:03:43:899;4.4125137;2.7150247;
0;04:03:43:909;4.6339774;1.8567034;
0;04:03:43:919;1.9656396;1.4305356;
0;04:03:43:929;-10.68652;-1.9213469;
0;04:03:43:938;3.3794158;4.220978;
0;04:03:43:948;6.730101;3.2872388;
0;04:03:43:958;-1.2162545;3.7588966;
0;04:03:43:968;2.634819;0.6488287;
0;04:03:43:978;0.664391;2.790442;
0;04:03:43:988;2.445677;-0.39863458;
0;04:03:43:998;-0.93852705;-0.80804306;
0;04:03:44:008;-3.681085;-2.3187842;
0;04:03:44:018;-2.5510218;5.0781016;
0;04:03:44:028;-0.29209262;5.523423;
0;04:03:44:039;3.2345665;1.1372458;
0;04:03:44:054;0.2669535;-3.6703112;
0;04:03:44:064;3.6475663;0.25139117;
0;04:03:44:074;-4.8602295;2.0219033;
0;04:03:44:084;0.11133038;4.724957;
0;04:03:44:094;5.0493712;2.7748797;
0;04:03:44:105;0.8714894;0.5506664;
0;04:03:44:115;2.8862102;-0.47405192;
0;04:03:44:125;-0.49799395;-3.6822822;
0;04:03:44:136;-3.5781345;2.8000188;
0;04:03:44:146;1.6376339;7.3765354;
0;04:03:44:161;5.234922;6.257246;
0;04:03:44:171;-6.6175733;-1.1252748;
0;04:03:44:181;-0.5746084;-3.6391866;
0;04:03:44:191;2.6755204;-4.6040497;
0;04:03:44:202;2.8574798;-0.4261679;
0;04:03:44:213;1.79206;2.4049757;
0;04:03:44:224;0.10534488;4.6782703;
0;04:03:44:234;-3.489549;1.6328455;
0;04:03:44:244;7.741651;5.1690817;
0;04:03:44:254;-6.029797;0.049081136;
0;04:03:44:271;10.006566;2.9819782;
0;04:03:44:280;11.827356;3.0226796;
0;04:03:44:291;-2.4636335;-1.5215151;
0;04:03:44:300;-1.2605472;0.94331545;
0;04:03:44:311;1.0426749;1.8626889;
0;04:03:44:322;6.5122285;1.6089035;
0;04:03:44:332;-5.568913;-1.7238252;
0;04:03:44:343;7.7081323;-0.2681506;
0;04:03:44:354;6.3482256;-1.2976574;
0;04:03:44:364;2.2397757;0.6560113;
0;04:03:44:375;3.846285;-0.48602295;
0;04:03:44:386;-4.6160207;-0.1376666;
0;04:03:44:397;12.8209505;0.521936;
0;04:03:44:406;0.7637503;2.232593;
0;04:03:44:417;4.590882;3.8630445;
0;04:03:44:426;1.6340426;-1.7405846;
0;04:03:44:436;4.6471453;1.6472107;
0;04:03:44:447;-1.4903905;-2.7808652;
0;04:03:44:458;3.1950622;-0.842759;
0;04:03:44:468;5.3342814;-2.4875755;
0;04:03:44:479;4.5082817;2.5127146;
0;04:03:44:490;5.6215854;4.581305;
0;04:03:44:500;6.5864487;4.661511;
0;04:03:44:511;1.6316484;-2.861071;
0;04:03:44:522;-2.3570917;-4.4807487;
0;04:03:44:532;1.3192052;-4.674679;
0;04:03:44:543;2.0506337;4.280833;
0;04:03:44:553;3.0346506;1.0893618;
0;04:03:44:564;0.9804256;7.538144;
0;04:03:44:574;-11.311406;-4.285621;
0;04:03:44:584;-0.9636662;1.3431472;
0;04:03:44:595;-1.4413095;-4.547786;
0;04:03:44:605;0.63087213;-1.0881647;
0;04:03:44:616;4.1623197;6.779182;
0;04:03:44:627;-7.204153;-0.46567222;
0;04:03:44:636;0.7254431;6.6067996;
0;04:03:44:647;-3.4201171;-3.2010477;
0;04:03:44:657;-6.506243;1.7357962;
0;04:03:44:667;-0.023942016;-1.9847932;
0;04:03:44:678;3.0992942;-2.72939;
0;04:03:44:688;-9.276335;-2.9999347;
0;04:03:44:699;0.059855044;0.5386954;
0;04:03:44:710;6.5241995;4.8003745;
0;04:03:44:721;-5.080496;-3.13401;
0;04:03:44:731;-8.305486;2.112883;
0;04:03:44:741;-6.1279593;1.2641385;
0;04:03:44:751;-1.103727;1.9895816;
0;04:03:44:762;-5.080496;1.6172832;
0;04:03:44:773;-11.98298;0.36272156;
0;04:03:44:783;2.942474;5.543774;
0;04:03:44:794;-9.386468;-5.8119245;
0;04:03:44:804;-8.389283;-0.7158663;
0;04:03:44:815;-13.862428;2.6192567;
0;04:03:44:826;-4.88896;3.8307228;
0;04:03:44:836;-3.3626564;-2.5187001;
0;04:03:44:847;-4.450821;2.5929205;
0;04:03:44:858;-12.437878;3.240552;
0;04:03:44:868;-2.385822;-0.8463503;
0;04:03:44:879;-11.784261;-2.6611552;
0;04:03:44:889;-5.0397944;3.157952;
0;04:03:44:899;-18.249802;-5.2684407;
0;04:03:44:910;-5.2145715;0.6452374;
0;04:03:44:921;-9.139865;-4.7441106;
0;04:03:44:931;5.333084;1.7669208;
0;04:03:44:942;-3.7708676;4.56694;
0;04:03:44:952;3.301604;-2.9891608;
0;04:03:44:962;0.07182605;5.5030727;
0;04:03:44:973;-11.990162;-6.155493;
0;04:03:44:983;-3.8007953;1.1432313;
0;04:03:44:994;-11.057621;-0.4405331;
0;04:03:45:004;-11.680113;-2.5582044;
0;04:03:45:015;-6.1123967;-2.268506;
0;04:03:45:026;-7.0569096;4.3766007;
0;04:03:45:036;-4.036624;-1.1180922;
0;04:03:45:047;-3.6655228;1.673547;
0;04:03:45:057;-8.322245;-2.6515784;
0;04:03:45:067;-2.2397757;1.043872;
0;04:03:45:077;-9.672575;0.51714754;
0;04:03:45:088;-13.385982;0.7637503;
0;04:03:45:098;-5.5461683;-0.7649474;
0;04:03:45:108;-13.054385;0.91458505;
0;04:03:45:118;-4.0617633;-1.3443443;
0;04:03:45:129;-11.2132435;4.8817773;
0;04:03:45:139;0.24779987;-0.25977087;
0;04:03:45:150;-5.499481;-0.009576807;
0;04:03:45:160;-4.3239284;3.3530796;
0;04:03:45:170;-7.3897038;-0.2693477;
0;04:03:45:181;-6.7648168;-0.7374141;
0;04:03:45:192;-6.6391215;-0.32561144;
0;04:03:45:203;2.6683378;4.3023806;
0;04:03:45:213;-2.3750482;-0.8571242;
0;04:03:45:224;-2.088941;2.5773582;
0;04:03:45:235;-12.061988;-2.006341;
0;04:03:45:246;2.432509;5.42167;
0;04:03:45:257;-5.3486466;0.82121116;
0;04:03:45:268;-6.501455;3.003526;
0;04:03:45:278;-12.873623;1.340753;
0;04:03:45:288;-3.3195608;1.6843209;
0;04:03:45:298;-5.020641;0.47764325;
0;04:03:45:309;-3.1543608;1.4413095;
0;04:03:45:320;-3.7122097;-2.3020248;
0;04:03:45:330;-2.5713725;2.1883004;
0;04:03:45:341;-2.4181437;-3.1878796;
0;04:03:45:351;-14.250289;-2.456451;
0;04:03:45:362;-4.8817773;3.0621839;
0;04:03:45:372;-13.730747;0.36870706;
0;04:03:45:383;-4.578911;1.3862427;
0;04:03:45:393;-3.1675289;-0.45968673;
0;04:03:45:403;2.8682537;9.2547865;
0;04:03:45:415;-9.167398;1.1911154;
0;04:03:45:425;-6.9958572;6.2632318;
0;04:03:45:436;-11.683704;-1.9931729;
0;04:03:45:446;-5.497087;4.7668557;
0;04:03:45:457;1.496376;3.4380736;
0;04:03:45:467;-1.3347675;1.3192052;
0;04:03:45:477;-8.451532;3.657143;
0;04:03:45:488;-10.086772;-2.0207062;
0;04:03:45:498;-0.6404489;4.404134;
0;04:03:45:509;-6.956353;2.1523874;
0;04:03:45:520;-3.2728736;0.38307226;
0;04:03:45:530;-0.89543146;2.979584;
0;04:03:45:541;-8.152257;0.25139117;
0;04:03:45:551;-0.91937345;5.0362034;
0;04:03:45:562;-4.1180267;3.7936125;
0;04:03:45:572;-6.4284315;-0.51834464;
0;04:03:45:583;5.058948;2.7281928;
0;04:03:45:594;2.0829554;0.10654198;
0;04:03:45:605;-4.747702;2.6982653;
0;04:03:45:616;-4.120421;2.2936451;
0;04:03:45:626;3.3758245;3.4715924;
0;04:03:45:637;-0.47884035;2.56419;
0;04:03:45:647;-7.8613615;2.043451;
0;04:03:45:657;2.895787;1.745373;
0;04:03:45:668;-0.1604115;-2.1416135;
0;04:03:45:679;-4.0162735;-2.5151088;
0;04:03:45:690;0.49679685;5.8346696;
0;04:03:45:700;3.8965633;2.2254105;
0;04:03:45:711;3.5913026;1.7226281;
0;04:03:45:722;-2.4109612;2.9628246;
0;04:03:45:732;-6.787562;2.220622;
0;04:03:45:742;10.885238;-1.9871874;
0;04:03:45:753;-1.9632454;-1.4879963;
0;04:03:45:764;6.4499793;3.2800562;
0;04:03:45:774;-0.22864626;1.6112977;
0;04:03:45:785;-3.0693667;8.619126;
0;04:03:45:796;-1.4796166;1.8590976;
0;04:03:45:805;-7.4232225;0.7457938;
0;04:03:45:816;2.778471;-0.40342298;
0;04:03:45:827;-1.0749966;0.7074866;
0;04:03:45:838;-1.352724;2.718616;
0;04:03:45:848;2.8754363;0.5566519;
0;04:03:45:858;9.433155;4.9823337;
0;04:03:45:869;-5.8933277;0.16879122;
0;04:03:45:880;1.4580688;3.0669725;
0;04:03:45:891;-0.91817635;-1.7369933;
0;04:03:45:901;7.357382;3.3997664;
0;04:03:45:912;-5.5748987;2.4612393;
0;04:03:45:923;1.2761095;2.0949266;
0;04:03:45:933;2.56419;5.0996494;
0;04:03:45:943;3.5889084;-0.8678981;
0;04:03:45:954;9.089587;-1.982399;
0;04:03:45:965;1.4425066;2.847903;
0;04:03:45:976;2.730587;-1.4065934;
0;04:03:45:986;5.0541596;1.2389994;
0;04:03:45:996;11.275493;-0.641646;
0;04:03:46:006;9.202114;-0.6536171;
0;04:03:46:017;2.6862943;0.45489833;
0;04:03:46:027;3.867833;-0.15442601;
0;04:03:46:037;-0.12210429;-0.32321724;
0;04:03:46:047;4.993108;1.8351556;
0;04:03:46:057;-3.1435869;2.5330653;
0;04:03:46:067;6.8402343;5.0146556;
0;04:03:46:078;8.726865;-2.0961237;
0;04:03:46:089;5.345055;2.0721815;
0;04:03:46:099;-2.2840683;-0.0047884034;
0;04:03:46:109;2.954445;-2.267309;
0;04:03:46:119;4.4879313;1.7286136;
0;04:03:46:130;2.3307555;-3.66672;
0;04:03:46:140;-1.5143325;-1.685518;
0;04:03:46:150;-3.9252937;2.0266917;
0;04:03:46:160;10.169372;1.8136078;
0;04:03:46:170;0.07182605;3.2213984;
0;04:03:46:181;4.607641;0.48003745;
0;04:03:46:191;1.9057846;5.317522;
0;04:03:46:202;3.845088;1.3132197;
0;04:03:46:213;3.3494883;1.3946224;
0;04:03:46:223;0.4261679;-0.4441244;
0;04:03:46:234;-6.3182983;-1.5119383;
0;04:03:46:244;-3.442862;-1.1121067;
0;04:03:46:255;6.245275;0.28491;
0;04:03:46:265;-2.280477;2.4013844;
0;04:03:46:276;-6.55293;4.3981485;
0;04:03:46:286;-1.7322049;0.676362;
0;04:03:46:297;1.2940661;3.787627;
0;04:03:46:307;9.981427;0.2669535;
0;04:03:46:317;-1.0654198;-0.7338228;
0;04:03:46:328;-6.3230867;0.4141969;
0;04:03:46:338;-5.140351;3.2118216;
0;04:03:46:348;7.2819643;3.6523547;
0;04:03:46:358;4.465186;-2.7748797;
0;04:03:46:369;-8.136695;-0.5494693;
0;04:03:46:380;-5.756858;0.16998832;
0;04:03:46:390;1.448492;0.19033903;
0;04:03:46:401;0.9540894;1.4520833;
0;04:03:46:411;-2.7509377;1.389834;
0;04:03:46:422;6.1303535;0.85473;
0;04:03:46:432;0.47285482;-5.9041014;
0;04:03:46:443;1.7501614;1.946486;
0;04:03:46:454;6.089652;7.6602483;
0;04:03:46:465;-4.140772;-2.871845;
0;04:03:46:476;-2.3104045;5.8933277;
0;04:03:46:486;6.208165;-1.8423382;
0;04:03:46:497;0.06943185;3.0214825;
0;04:03:46:507;-4.559757;6.9599442;
0;04:03:46:517;-1.7142484;2.6922798;
0;04:03:46:527;6.021417;-3.9695864;
0;04:03:46:537;-6.1064115;-4.378995;
0;04:03:46:547;3.989937;-4.9105077;
0;04:03:46:557;4.8985367;-0.5374983;
0;04:03:46:568;20.88462;4.050989;
0;04:03:46:578;-3.345897;2.468422;
0;04:03:46:588;5.1259856;3.4811692;
0;04:03:46:599;3.430891;-4.453215;
0;04:03:46:609;11.767501;3.052607;
0;04:03:46:620;-0.47524905;7.311892;
0;04:03:46:630;10.474632;-0.22266077;
0;04:03:46:641;11.192893;15.245079;
0;04:03:46:652;9.090784;-9.1590185;
0;04:03:46:662;22.296003;1.9740193;
0;04:03:46:673;16.77258;-0.2633622;
0;04:03:46:683;17.774553;-1.5179238;
0;04:03:46:693;29.294254;0.5315128;
0;04:03:46:704;11.869255;0.38067806;
0;04:03:46:715;5.8466406;-13.138182;
0;04:03:46:725;13.306973;10.5704;
0;04:03:46:736;7.789535;-6.4870896;
0;04:03:46:746;6.0884547;7.0545154;
0;04:03:46:756;-6.721721;7.8649526;
0;04:03:46:767;-1.4377182;-8.350976;
0;04:03:46:777;18.28452;-2.468422;
0;04:03:46:787;3.678691;4.617218;
0;04:03:46:798;8.397662;2.5210943;
0;04:03:46:808;18.37909;-9.121908;
0;04:03:46:819;13.109451;-1.4197617;
0;04:03:46:830;9.987412;-4.238934;
0;04:03:46:840;18.37071;0.91937345;
0;04:03:46:851;16.500837;-5.0517654;
0;04:03:46:861;-15.664064;11.660959;
0;04:03:46:872;-9.842564;2.2038627;
0;04:03:46:882;9.855731;2.8443117;
0;04:03:46:892;7.1502833;-3.301604;
0;04:03:46:903;20.94687;-4.4544125;
0;04:03:46:914;6.7013707;-6.331466;
0;04:03:46:925;14.116213;-3.915717;
0;04:03:46:934;7.3418193;0.6572084;
0;04:03:46:945;7.98586;-6.6187706;
0;04:03:46:955;14.110228;2.3116016;
0;04:03:46:966;17.255013;-2.6144683;
0;04:03:46:976;6.157887;-3.8845923;
0;04:03:46:987;13.376405;1.4401124;
0;04:03:46:997;8.118738;-5.01705;
0;04:03:47:007;11.968615;6.4044895;
0;04:03:47:018;2.706645;-0.8379706;
0;04:03:47:028;12.204443;3.264494;
0;04:03:47:039;9.24521;-5.866991;
0;04:03:47:049;3.0801406;3.4440591;
0;04:03:47:060;7.589619;2.9963434;
0;04:03:47:071;5.092467;-0.32920274;
0;04:03:47:082;5.069722;1.8902222;
0;04:03:47:092;-0.58418524;2.19668;
0;04:03:47:103;9.040505;1.7824832;
0;04:03:47:115;7.433996;1.6927006;
0;04:03:47:125;4.983531;-6.2368956;
0;04:03:47:136;11.410766;1.6651673;
0;04:03:47:146;1.7130513;-5.1547165;
0;04:03:47:157;2.2984335;1.7010803;
0;04:03:47:168;-7.111976;-0.21787235;
0;04:03:47:178;0.23822308;6.143522;
0;04:03:47:188;19.84075;-5.2205567;
0;04:03:47:198;3.5410242;3.5242648;
0;04:03:47:209;1.6962919;0.92057055;
0;04:03:47:219;5.2660465;-1.0283096;
0;04:03:47:229;13.814544;3.3279405;
0;04:03:47:240;-0.49320555;3.0334535;
0;04:03:47:250;-0.92057055;-8.804677;
0;04:03:47:261;11.535264;-1.198298;
0;04:03:47:271;3.989937;-2.183512;
0;04:03:47:281;-1.5682021;2.055422;
0;04:03:47:291;6.0800753;8.08881;
0;04:03:47:301;6.215348;-2.0231004;
0;04:03:47:312;-6.3769565;3.4955344;
0;04:03:47:323;7.7440453;10.383653;
0;04:03:47:334;9.452309;-0.82599956;
0;04:03:47:344;3.2501287;4.423288;
0;04:03:47:355;4.8662148;0.6727707;
0;04:03:47:365;0.80445176;0.78050977;
0;04:03:47:376;-5.768829;-1.0139444;
0;04:03:47:385;-2.244564;-0.688333;
0;04:03:47:396;2.8622682;2.528277;
0;04:03:47:407;-2.3020248;-0.94331545;
0;04:03:47:417;-9.299079;2.9724014;
0;04:03:47:427;-3.6619315;3.9671922;
0;04:03:47:438;-5.4982843;2.7688942;
0;04:03:47:449;-2.9592333;3.514688;
0;04:03:47:459;8.6574335;3.1184478;
0;04:03:47:470;-2.7641058;-1.0043676;
0;04:03:47:480;-7.2987237;-1.8543092;
0;04:03:47:490;4.337096;2.7269957;
0;04:03:47:501;-0.60333884;8.252813;
0;04:03:47:510;-4.2173862;1.5993267;
0;04:03:47:521;2.6719291;0.91099375;
0;04:03:47:532;11.3880205;3.9755719;
0;04:03:47:542;3.0466216;-0.79726917;
0;04:03:47:552;-3.8522706;1.9728222;
0;04:03:47:562;-2.1188686;-4.2999864;
0;04:03:47:572;1.2018893;3.916914;
0;04:03:47:582;-4.343082;3.2609026;
0;04:03:47:592;-0.79966336;4.7070007;
0;04:03:47:603;4.2999864;4.3035774;
0;04:03:47:613;3.3291376;2.2637177;
0;04:03:47:624;2.6779146;-2.088941;
0;04:03:47:634;0.8487445;-0.7266402;
0;04:03:47:644;-0.16998832;0.8834604;
0;04:03:47:654;1.0067618;3.608062;
0;04:03:47:664;-1.6292542;0.6739678;
0;04:03:47:674;0.34476504;5.321113;
0;04:03:47:684;-5.535394;-0.49440265;
0;04:03:47:694;-4.0174704;-0.39863458;
0;04:03:47:705;-0.81283146;-1.7405846;
0;04:03:47:715;4.8386817;1.3347675;
0;04:03:47:725;-11.580753;3.9755719;
0;04:03:47:735;2.1092918;3.927688;
0;04:03:47:746;0.5363012;-0.49440265;
0;04:03:47:757;5.0613422;0.1412579;
0;04:03:47:767;0.3196259;4.8243165;
0;04:03:47:777;5.7017913;3.3123782;
0;04:03:47:788;1.8028339;2.4887726;
0;04:03:47:798;11.801021;-2.0326772;
0;04:03:47:808;5.829881;1.1504139;
0;04:03:47:819;-1.9536686;-4.7860093;
0;04:03:47:830;-0.40102878;2.1751323;
0;04:03:47:841;-3.2513258;-7.559692;
0;04:03:47:852;4.2102036;8.005013;
0;04:03:47:863;9.580399;-0.34715924;
0;04:03:47:873;6.0944405;2.5450363;
0;04:03:47:884;-1.9069817;-0.2896984;
0;04:03:47:894;1.1851299;-1.5861586;
0;04:03:47:904;6.9168487;-0.7613561;
0;04:03:47:915;0.7793127;1.9237411;
0;04:03:47:926;6.0716953;2.814384;
0;04:03:47:937;6.9491706;0.6596026;
0;04:03:47:948;1.9752164;-0.5614403;
0;04:03:47:958;0.24061728;6.9467764;
0;04:03:47:969;-0.6428431;3.857059;
0;04:03:47:980;8.8645315;2.0027497;
0;04:03:47:991;-6.2141504;0.033518825;
0;04:03:48:001;1.8064252;-5.8358665;
0;04:03:48:011;1.6962919;1.5179238;
0;04:03:48:022;6.706159;-5.7999535;
0;04:03:48:033;-2.4492683;3.927688;
0;04:03:48:043;7.795521;6.7360864;
0;04:03:48:054;-4.9775453;1.6424223;
0;04:03:48:064;8.057686;4.5980644;
0;04:03:48:074;2.3451207;3.3375173;
0;04:03:48:085;-1.0905589;0.11133038;
0;04:03:48:096;-2.8550856;-1.0139444;
0;04:03:48:106;0.92176765;3.550601;
0;04:03:48:117;4.110844;4.188656;
0;04:03:48:127;0.3172317;2.779668;
0;04:03:48:137;5.839458;0.59256494;
0;04:03:48:148;-8.234857;-10.613496;
0;04:03:48:159;-2.7856536;-5.0493712;
0;04:03:48:169;-1.7381904;-0.8583213;
0;04:03:48:179;-7.845799;-2.6659436;
0;04:03:48:190;7.067683;-1.6352397;
0;04:03:48:201;-8.558074;0.439336;
0;04:03:48:211;-5.722142;6.6367273;
0;04:03:48:222;-2.2146366;3.4045548;
0;04:03:48:232;-9.512163;6.8402343;
0;04:03:48:242;4.903325;-3.3566709;
0;04:03:48:253;4.3897686;-1.435324;
0;04:03:48:264;2.6036944;-0.59735334;
0;04:03:48:274;2.9819782;0.37469256;
0;04:03:48:284;-10.259154;-2.885013;
0;04:03:48:295;3.3051953;5.9986725;
0;04:03:48:306;1.2844892;2.834735;
0;04:03:48:317;-2.9903579;-0.11731588;
0;04:03:48:327;3.0490158;-3.5817258;
0;04:03:48:337;6.2500634;-1.9416976;
0;04:03:48:347;1.9165585;-2.932897;
0;04:03:48:358;-0.50158525;1.1623849;
0;04:03:48:369;-7.5525093;1.447295;
0;04:03:48:379;7.091625;10.92594;
0;04:03:48:390;4.583699;3.6774938;
0;04:03:48:401;7.337031;-1.7896658;
0;04:03:48:412;-3.2573113;-4.757279;
0;04:03:48:422;-8.249222;4.8362875;
0;04:03:48:433;-0.45489833;-0.6655881;
0;04:03:48:443;-4.735731;-0.39983168;
0;04:03:48:454;0.90021986;5.366603;
0;04:03:48:464;-0.9816227;-0.985214;
0;04:03:48:474;-3.7984009;0.6751649;
0;04:03:48:485;-15.82687;-0.8487445;
0;04:03:48:496;7.9966335;-2.15957;
0;04:03:48:505;5.2995653;-6.513426;
0;04:03:48:516;-0.15322891;-6.4427967;
0;04:03:48:528;0.4141969;0.15083471;
0;04:03:48:538;1.3431472;-5.753267;
0;04:03:48:548;-10.09156;-3.2728736;
0;04:03:48:559;16.162058;2.8311436;
0;04:03:48:570;-1.4820108;-7.890092;
0;04:03:48:581;15.503654;5.602432;
0;04:03:48:591;10.964247;2.6719291;
0;04:03:48:602;7.6853876;-2.6551697;
0;04:03:48:613;6.1387334;2.3894134;
0;04:03:48:623;21.200657;-0.5410896;
0;04:03:48:634;12.99453;-10.85531;
0;04:03:48:645;-1.9668367;-0.7445967;
0;04:03:48:656;25.213339;-7.041347;
0;04:03:48:667;6.989872;-0.08738836;
0;04:03:48:677;15.149311;3.6523547;
0;04:03:48:688;13.421895;1.8004397;
0;04:03:48:699;-0.40821138;-9.355343;
0;04:03:48:709;8.034941;2.110489;
0;04:03:48:720;5.4803276;0.053869538;
0;04:03:48:731;1.2066777;-12.479776;
0;04:03:48:741;12.261904;-0.94690675;
0;04:03:48:752;0.9935937;0.6536171;
0;04:03:48:762;7.067683;-11.303026;
0;04:03:48:773;9.412804;-3.9671922;
0;04:03:48:784;12.706028;-4.1503487;
0;04:03:48:794;-6.087258;-7.7931266;
0;04:03:48:805;15.665261;3.454833;
0;04:03:48:815;6.6486983;-1.234211;
0;04:03:48:826;22.16552;-6.1890116;
0;04:03:48:837;6.196194;1.5167267;
0;04:03:48:846;8.746018;-1.6579847;
0;04:03:48:857;9.498995;-0.18195933;
0;04:03:48:867;11.253945;-6.0704985;
0;04:03:48:877;4.9667716;2.088941;
0;04:03:48:888;15.152903;-3.2225955;
0;04:03:48:898;6.8079123;-4.5860934;
0;04:03:48:908;15.585056;0.0023942017;
0;04:03:48:919;5.0146556;-4.284424;
0;04:03:48:930;16.105795;0.51595044;
0;04:03:48:941;6.2524576;-7.6255326;
0;04:03:48:952;15.473725;0.5231331;
0;04:03:48:963;1.067814;-3.5230677;
0;04:03:48:974;9.094376;-6.670246;
0;04:03:48:984;12.239159;3.1651347;
0;04:03:48:994;12.378023;-5.189432;
0;04:03:49:004;5.8143187;1.8004397;
0;04:03:49:014;17.308882;-2.432509;
0;04:03:49:024;4.4783545;-0.6871359;
0;04:03:49:035;11.971008;3.052607;
0;04:03:49:045;7.193379;-0.22984336;
0;04:03:49:056;8.228871;0.80804306;
0;04:03:49:066;6.779182;3.4440591;
0;04:03:49:077;10.608707;4.583699;
0;04:03:49:088;5.3079453;-0.81761986;
0;04:03:49:098;17.735048;9.147048;
0;04:03:49:109;-2.6048915;3.0226796;
0;04:03:49:119;-0.1400608;2.8814218;
0;04:03:49:129;10.85531;5.0374002;
0;04:03:49:140;11.356895;5.493496;
0;04:03:49:151;1.733402;1.8555063;
0;04:03:49:161;0.11731588;3.2441432;
0;04:03:49:171;3.8510735;0.11252748;
0;04:03:49:182;3.7708676;3.1064768;
0;04:03:49:192;5.3462524;2.2661119;
0;04:03:49:202;9.925163;5.8909335;
0;04:03:49:213;2.2050598;1.1803415;
0;04:03:49:223;6.0561333;5.163096;
0;04:03:49:233;-6.4787097;1.340753;
0;04:03:49:243;4.2676644;2.4887726;
0;04:03:49:253;-2.8502972;0.272939;
0;04:03:49:263;-4.1144357;8.576031;
0;04:03:49:274;4.6339774;1.9009962;
0;04:03:49:284;0.80205756;4.734534;
0;04:03:49:295;-2.9580362;3.2920272;
0;04:03:49:304;5.801151;2.991555;
0;04:03:49:314;-1.6412252;0.074220255;
0;04:03:49:324;1.2665327;6.3769565;
0;04:03:49:334;-6.9132576;-1.8076223;
0;04:03:49:344;-1.0139444;-1.4760253;
0;04:03:49:354;13.694834;3.2441432;
0;04:03:49:364;-2.7748797;-1.1755531;
0;04:03:49:375;-2.956839;-9.706094;
0;04:03:49:385;-1.6531962;-0.8367735;
0;04:03:49:396;25.226505;22.955606;
0;04:03:49:406;-4.531027;-5.4922986;
0;04:03:49:417;3.3602622;4.012682;
0;04:03:49:428;8.129512;10.636241;
0;04:03:49:439;0.2885013;0.6560113;
0;04:03:49:451;-8.732851;-3.9911342;
0;04:03:49:461;7.3202715;-2.2050598;
0;04:03:49:472;-6.6726403;-0.9516952;
0;04:03:49:483;-6.029797;2.3451207;
0;04:03:49:493;3.5853171;4.7740383;
0;04:03:49:504;1.4796166;1.7405846;
0;04:03:49:514;2.540248;6.3123126;
0;04:03:49:524;-6.157887;0.17717093;
0;04:03:49:535;1.0833763;6.673837;
0;04:03:49:546;0.7398083;-8.259995;
0;04:03:49:557;-6.9168487;-6.147113;
0;04:03:49:567;3.74094;-1.5873557;
0;04:03:49:578;-3.819949;-4.981137;
0;04:03:49:587;-12.76708;1.5346833;
0;04:03:49:598;-14.225149;-2.5821466;
0;04:03:49:609;6.853402;1.8387469;
0;04:03:49:619;-1.7513585;3.8546648;
0;04:03:49:629;4.298789;0.5770026;
0;04:03:49:639;0.6799533;-2.4241292;
0;04:03:49:650;8.543709;5.4982843;
0;04:03:49:661;-11.656171;-1.4293385;
0;04:03:49:671;-6.0202203;-0.89662856;
0;04:03:49:681;-7.8649526;6.05733;
0;04:03:49:691;-4.5358152;0.14844051;
0;04:03:49:701;-2.529474;3.0322564;
0;04:03:49:712;-5.6335564;2.9712043;
0;04:03:49:722;-1.1599907;0.47046062;
0;04:03:49:733;-11.234792;3.4237084;
0;04:03:49:743;-7.908048;-1.8076223;
0;04:03:49:754;-1.2617443;4.2556934;
0;04:03:49:764;-3.5529952;-1.5095441;
0;04:03:49:775;-3.5817258;2.5881321;
0;04:03:49:785;-9.3182335;-1.1923125;
0;04:03:49:795;5.6886234;4.38498;
0;04:03:49:805;-7.728483;2.5246856;
0;04:03:49:815;-9.223662;0.8487445;
0;04:03:49:825;2.8335378;2.1775265;
0;04:03:49:835;10.85531;3.750517;
0;04:03:49:846;-7.5644803;-4.06296;
0;04:03:49:858;-7.9511437;5.755661;
0;04:03:49:869;-11.476605;-4.4963107;
0;04:03:49:879;-1.1061212;2.5234885;
0;04:03:49:889;0.91458505;8.23366;
0;04:03:49:900;-1.6101006;-1.2389994;
0;04:03:49:911;-0.32680854;-0.11611878;
0;04:03:49:921;-0.58777654;-3.7828386;
0;04:03:49:932;-2.554613;12.428301;
0;04:03:49:942;-5.321113;-1.7345991;
0;04:03:49:952;-7.8493905;0.6368576;
0;04:03:49:962;9.340978;4.584896;
0;04:03:49:973;-7.121553;-6.9228344;
0;04:03:49:983;-14.257471;5.327099;
0;04:03:49:994;-10.572795;3.9360676;
0;04:03:50:004;-11.605893;0.19991584;
0;04:03:50:015;-7.3406224;-2.48159;
0;04:03:50:025;-10.654198;-2.2361844;
0;04:03:50:036;-9.890448;-0.9624691;
0;04:03:50:046;-8.313866;-5.12838;
0;04:03:50:057;-3.5757403;-0.15801731;
0;04:03:50:068;-6.0357823;-10.603919;
0;04:03:50:079;-3.3506854;2.3570917;
0;04:03:50:089;-11.944673;-9.476251;
0;04:03:50:100;-18.650831;-9.009381;
0;04:03:50:110;-12.489353;0.32680854;
0;04:03:50:121;-10.208876;-4.7536874;
0;04:03:50:131;3.846285;-0.34237084;
0;04:03:50:142;-8.51857;-0.40821138;
0;04:03:50:152;-13.00291;-0.9792285;
0;04:03:50:163;-19.918562;-1.6172832;
0;04:03:50:174;-21.414938;-5.7508726;
0;04:03:50:184;-13.729549;-0.48123455;
0;04:03:50:195;-20.563799;-3.8965633;
0;04:03:50:205;-6.0477533;-2.1260512;
0;04:03:50:216;-7.4507556;-2.385822;
0;04:03:50:226;-5.0062757;-0.61171854;
0;04:03:50:237;-6.7612257;-1.4640543;
0;04:03:50:247;-0.89782566;0.1376666;
0;04:03:50:257;-11.86686;-2.1978772;
0;04:03:50:268;-12.029667;0.8331822;
0;04:03:50:279;-11.899182;0.5494693;
0;04:03:50:290;-11.749545;-1.9847932;
0;04:03:50:301;-13.056779;-2.1823149;
0;04:03:50:312;-2.5689783;-2.823961;
0;04:03:50:323;-6.349423;-1.7118542;
0;04:03:50:334;1.5729905;-0.61650693;
0;04:03:50:344;-10.959458;-6.375759;
0;04:03:50:355;1.3455414;4.7022123;
0;04:03:50:366;-26.463112;-14.610616;
0;04:03:50:377;-11.180922;6.2404866;
0;04:03:50:387;2.5510218;-0.7565677;
0;04:03:50:398;-4.927267;-1.7621324;
0;04:03:50:408;-4.927267;-1.7621324;
0;04:03:50:418;-11.208455;0.89902276;
0;04:03:50:428;-4.6806645;-4.983531;
0;04:03:50:439;-3.0430303;-0.0047884034;
0;04:03:50:449;-8.204929;1.8866309;
0;04:03:50:460;-10.21127;5.409699;
0;04:03:50:471;-4.2999864;2.9712043;
0;04:03:50:481;-14.696807;-2.3451207;
0;04:03:50:491;-3.7780502;5.1547165;
0;04:03:50:501;-5.807136;7.0305734;
0;04:03:50:511;-9.956287;0.1436521;
0;04:03:50:521;-3.3135753;3.8474822;
0;04:03:50:531;-3.2010477;5.619191;
0;04:03:50:541;-8.061277;4.346673;
0;04:03:50:551;-7.0928226;5.374983;
0;04:03:50:561;-8.148665;3.4332852;
0;04:03:50:572;-4.4568067;3.0789435;
0;04:03:50:582;-1.9668367;3.2513258;
0;04:03:50:592;-3.6403837;4.498705;
0;04:03:50:602;-0.61052144;3.9336734;
0;04:03:50:612;-3.0214825;3.715801;
0;04:03:50:622;-11.335348;0.16280572;
0;04:03:50:632;-5.849035;2.1918917;
0;04:03:50:642;3.6739025;-5.7616463;
0;04:03:50:653;-1.6986861;-3.0298622;
0;04:03:50:664;-2.0841527;-3.3518825;
0;04:03:50:675;6.149507;1.1959038;
0;04:03:50:685;0.688333;7.902063;
0;04:03:50:695;-0.051475335;-0.44651863;
0;04:03:50:705;9.369708;2.9161377;
0;04:03:50:715;7.3059063;1.3012487;
0;04:03:50:725;1.8171991;5.161899;
0;04:03:50:736;1.3934253;-3.5482068;
0;04:03:50:746;-10.850522;-0.676362;
0;04:03:50:757;6.281188;-3.764882;
0;04:03:50:767;9.421184;-3.6391866;
0;04:03:50:778;13.120225;1.5586253;
0;04:03:50:788;16.475698;0.22984336;
0;04:03:50:798;-3.3782187;-0.08020575;
0;04:03:50:809;14.222755;7.8062944;
0;04:03:50:819;4.4448357;5.907693;
0;04:03:50:830;17.727867;-0.029927522;
0;04:03:50:840;7.394492;9.390059;
0;04:03:50:851;-0.6512229;-0.19033903;
0;04:03:50:861;-0.7146692;5.7149596;
0;04:03:50:872;7.133524;-0.51355624;
0;04:03:50:882;13.079524;3.0107086;
0;04:03:50:893;6.203377;0.16639702;
0;04:03:50:903;3.6487634;3.5482068;
0;04:03:50:914;0.09935937;2.920926;
0;04:03:50:924;1.198298;-0.92176765;
0;04:03:50:934;7.860164;5.697003;
0;04:03:50:945;3.7325604;1.067814;
0;04:03:50:955;-2.5354595;2.3678656;
0;04:03:50:966;-3.2225955;-3.347094;
0;04:03:50:975;2.60968;-4.6351743;
0;04:03:50:986;0.19153613;0.5267244;
0;04:03:50:996;-2.554613;-1.2210429;
0;04:03:51:007;-4.5274353;6.6415157;
0;04:03:51:017;1.8291701;1.2689269;
0;04:03:51:028;0.9935937;0.91937345;
0;04:03:51:039;3.8618474;-0.35075054;
0;04:03:51:050;-3.7852328;4.859032;
0;04:03:51:060;-2.336741;2.079364;
0;04:03:51:071;-2.5270798;3.4201171;
0;04:03:51:081;4.832696;-4.1659107;
0;04:03:51:092;-4.1335893;-1.8507179;
0;04:03:51:102;-0.61650693;-4.0617633;
0;04:03:51:113;1.7896658;1.1133038;
0;04:03:51:123;-7.3059063;3.4560301;
0;04:03:51:134;-2.6659436;3.323152;
0;04:03:51:144;5.8921304;-0.2633622;
0;04:03:51:155;4.083311;-0.046686932;
0;04:03:51:164;-1.2042835;1.1875241;
0;04:03:51:175;-8.992621;3.606865;
0;04:03:51:185;0.7517793;0.1388637;
0;04:03:51:195;4.8626237;4.799177;
0;04:03:51:205;-4.0258503;-0.29328972;
0;04:03:51:215;-0.6488287;4.1419687;
0;04:03:51:225;-0.15442601;-0.45130703;
0;04:03:51:235;0.8655039;-0.34356794;
0;04:03:51:245;-0.17357962;-0.4285621;
0;04:03:51:256;1.6938977;2.6599581;
0;04:03:51:266;-3.6511576;3.6595373;
0;04:03:51:277;0.89303726;0.80205756;
0;04:03:51:287;-0.8355764;-1.0893618;
0;04:03:51:297;-9.53012;-2.1296425;
0;04:03:51:307;6.053739;1.9991584;
0;04:03:51:317;-4.5525746;-1.5310919;
0;04:03:51:327;9.652225;5.1020436;
0;04:03:51:338;2.7509377;0.10654198;
0;04:03:51:348;-0.7457938;2.9161377;
0;04:03:51:358;9.970653;3.0298622;
0;04:03:51:369;-4.939238;1.5705963;
0;04:03:51:379;-9.398438;3.0538042;
0;04:03:51:390;1.0271125;-2.1068976;
0;04:03:51:400;3.7780502;-2.0937295;
0;04:03:51:412;6.6175733;8.173804;
0;04:03:51:422;-4.805163;0.20709845;
0;04:03:51:432;-0.6584055;3.4488475;
0;04:03:51:443;-1.5047557;-5.121197;
0;04:03:51:453;-4.7285485;-1.0151415;
0;04:03:51:464;-1.946486;-3.5625722;
0;04:03:51:474;-0.59136784;-2.5941176;
0;04:03:51:485;0.59495914;2.3223755;
0;04:03:51:496;1.9033904;6.039374;
0;04:03:51:507;-2.445677;2.3343468;
0;04:03:51:517;11.250354;5.9160724;
0;04:03:51:528;2.2038627;-2.3906105;
0;04:03:51:539;-5.270835;-1.5753847;
0;04:03:51:550;-2.9388826;-0.6955156;
0;04:03:51:560;4.3143516;1.8411411;
0;04:03:51:571;8.444349;1.70946;
0;04:03:51:581;2.8742392;0.7745243;
0;04:03:51:592;0.8690952;-6.278794;
0;04:03:51:602;3.8738184;-3.7002387;
0;04:03:51:613;5.5270147;-0.45609543;
0;04:03:51:624;5.092467;2.231396;
0;04:03:51:634;3.0358477;-1.8004397;
0;04:03:51:645;-0.4369418;0.23223756;
0;04:03:51:656;3.6367924;-2.6312277;
0;04:03:51:665;5.4982843;2.9293058;
0;04:03:51:675;2.5187001;3.570952;
0;04:03:51:686;6.196194;-3.2070332;
0;04:03:51:697;0.2657564;5.0254292;
0;04:03:51:707;5.631162;-5.461174;
0;04:03:51:717;6.4404025;5.5150437;
0;04:03:51:728;5.722142;-0.8331822;
0;04:03:51:739;2.0374656;1.99437;
0;04:03:51:749;5.439626;0.29807812;
0;04:03:51:760;1.62686;-0.62249243;
0;04:03:51:771;-2.896984;-1.0450691;
0;04:03:51:782;5.398925;-2.208651;
0;04:03:51:793;-2.719813;2.1320367;
0;04:03:51:804;-1.3706805;-4.3538556;
0;04:03:51:815;-3.6990416;-0.24061728;
0;04:03:51:826;-4.7309427;-4.361038;
0;04:03:51:836;-5.183447;-2.420538;
0;04:03:51:846;-5.317522;-1.3599066;
0;04:03:51:857;-13.13459;-5.2600613;
0;04:03:51:867;1.1300632;-10.126276;
0;04:03:51:877;-0.6512229;2.9867666;
0;04:03:51:888;-3.8833952;1.8926164;
0;04:03:51:898;-12.488156;-9.928755;
0;04:03:51:908;-8.215703;8.735245;
0;04:03:51:919;-10.651803;-6.1112;
0;04:03:51:929;-6.131551;0.36391866;
0;04:03:51:940;-12.533646;-3.3363202;
0;04:03:51:951;-11.378444;-2.8323407;
0;04:03:51:961;-13.851654;-6.7971387;
0;04:03:51:972;-9.077616;-1.6711528;
0;04:03:51:982;-10.198102;-3.180697;
0;04:03:51:992;-15.186421;-1.7860745;
0;04:03:52:003;-3.4943373;-2.7377696;
0;04:03:52:013;-10.8948145;-2.8311436;
0;04:03:52:024;5.2995653;1.1719618;
0;04:03:52:034;-16.09502;-1.6998832;
0;04:03:52:044;-1.1001357;3.3255463;
0;04:03:52:055;-20.378248;-5.9878983;
0;04:03:52:065;-2.6120741;-3.2213984;
0;04:03:52:076;-18.136078;-4.1264067;
0;04:03:52:086;-4.0773253;0.24301147;
0;04:03:52:096;-12.041637;-1.4520833;
0;04:03:52:106;-6.0585275;-0.29807812;
0;04:03:52:116;-5.6096144;-5.076905;
0;04:03:52:126;-14.468161;2.2002714;
0;04:03:52:136;-0.985214;-2.0649989;
0;04:03:52:147;-11.7627125;-3.976769;
0;04:03:52:156;-13.174095;-1.673547;
0;04:03:52:167;-3.7948096;-1.7884687;
0;04:03:52:178;-4.390966;-0.91578215;
0;04:03:52:188;-10.729615;-6.703765;
0;04:03:52:198;-12.513295;-7.335834;
0;04:03:52:209;-13.668497;-1.2234371;
0;04:03:52:220;-20.47641;0.8643068;
0;04:03:52:231;-6.7827735;-5.2983685;
0;04:03:52:241;1.8602947;-0.33159694;
0;04:03:52:252;-8.086416;1.3730747;
0;04:03:52:262;-4.7560816;1.0714053;
0;04:03:52:273;-16.940174;-5.628768;
0;04:03:52:283;-1.9752164;2.5677812;
0;04:03:52:294;-6.8689647;-2.8263552;
0;04:03:52:305;-13.072341;0.557849;
0;04:03:52:316;-16.885107;-4.0545807;
0;04:03:52:326;-11.696873;-1.5334862;
0;04:03:52:337;-8.408437;0.61770403;
0;04:03:52:348;0.9840169;-0.664391;
0;04:03:52:358;-5.2289367;-1.6531962;
0;04:03:52:368;-1.2916719;-1.6041151;
0;04:03:52:379;-9.069236;-3.5003228;
0;04:03:52:389;-4.6902413;-0.9947908;
0;04:03:52:400;-0.82360536;-1.8626889;
0;04:03:52:410;-4.5920787;0.19033903;
0;04:03:52:421;-9.619903;-5.533;
0;04:03:52:432;-7.145495;-0.65242;
0;04:03:52:442;-11.962628;-5.671864;
0;04:03:52:453;-5.2145715;0.9648633;
0;04:03:52:463;-7.8410106;-0.12808979;
0;04:03:52:473;-4.63278;-3.4284968;
0;04:03:52:484;-3.3626564;-3.5446155;
0;04:03:52:494;-10.751163;-2.5067291;
0;04:03:52:504;-12.451046;-0.19273324;
0;04:03:52:515;-4.015076;-0.12330139;
0;04:03:52:525;-9.421184;0.2885013;
0;04:03:52:537;-8.920795;-4.0880995;
0;04:03:52:547;3.8379054;2.1296425;
0;04:03:52:557;1.4856021;0.28491;
0;04:03:52:568;-2.183512;2.292448;
0;04:03:52:579;-4.662708;1.4520833;
0;04:03:52:589;-5.2277393;2.4169466;
0;04:03:52:600;-6.6989765;1.091756;
0;04:03:52:610;-1.7956513;3.1387985;
0;04:03:52:621;-4.060566;4.9440265;
0;04:03:52:631;-1.0175357;1.8267759;
0;04:03:52:642;-1.4161704;-1.9955671;
0;04:03:52:652;-0.676362;-1.0785879;
0;04:03:52:663;-4.6399627;-2.0745757;
0;04:03:52:673;7.1347213;2.4708161;
0;04:03:52:684;1.3084313;4.259285;
0;04:03:52:694;-0.6979098;1.661576;
0;04:03:52:704;-0.4249708;4.498705;
0;04:03:52:715;-3.7828386;-0.9804256;
0;04:03:52:725;-0.1352724;-1.816002;
0;04:03:52:736;3.7672763;-1.7968484;
0;04:03:52:746;-0.36511576;3.2609026;
0;04:03:52:757;-4.7321396;5.0876784;
0;04:03:52:767;-1.7178397;0.22385786;
0;04:03:52:777;-0.5243302;3.3506854;
0;04:03:52:788;1.7082629;-0.2657564;
0;04:03:52:798;-3.6296098;-5.0625396;
0;04:03:52:808;1.2030864;-1.1827357;
0;04:03:52:819;-2.0925324;0.9588778;
0;04:03:52:829;-4.297592;3.8510735;
0;04:03:52:840;-10.840945;0.79966336;
0;04:03:52:850;1.6771383;3.1794999;
0;04:03:52:861;4.1539397;-1.5454572;
0;04:03:52:871;-1.7549498;-2.9879637;
0;04:03:52:882;-0.94092125;4.643554;
0;04:03:52:893;-1.8315643;1.4820108;
0;04:03:52:903;4.083311;3.098097;
0;04:03:52:913;-0.1448492;0.035913024;
0;04:03:52:924;7.381324;-1.7190368;
0;04:03:52:935;-4.4568067;-4.3478703;
0;04:03:52:946;-12.196063;1.2389994;
0;04:03:52:955;-9.622296;-0.34117374;
0;04:03:52:966;0.21906945;4.3418846;
0;04:03:52:977;-1.4856021;1.946486;
0;04:03:52:989;-3.0801406;0.10654198;
0;04:03:53:000;-0.5315128;-0.8379706;
0;04:03:53:010;-2.1631613;-5.4899044;
0;04:03:53:020;3.3315318;5.819107;
0;04:03:53:031;1.555034;-3.405752;
0;04:03:53:040;9.739613;4.915296;
0;04:03:53:051;2.9149406;-2.6874914;
0;04:03:53:061;-2.018312;-5.6802435;
0;04:03:53:071;0.3172317;3.8163576;
0;04:03:53:081;9.903615;0.9947908;
0;04:03:53:092;-1.4688427;-1.3144168;
0;04:03:53:102;-1.7070658;6.8929067;
0;04:03:53:113;-2.693477;-0.1364695;
0;04:03:53:123;13.800179;-0.58298814;
0;04:03:53:134;7.3346367;0.12569559;
0;04:03:53:145;7.0006456;0.5746084;
0;04:03:53:155;-7.297527;1.4449008;
0;04:03:53:166;-0.6979098;-0.16280572;
0;04:03:53:178;8.465898;5.9771247;
0;04:03:53:188;1.3958195;-1.2689269;
0;04:03:53:198;0.6548142;0.8415619;
0;04:03:53:209;3.453636;1.2186487;
0;04:03:53:220;-1.8686744;-1.8267759;
0;04:03:53:231;-1.0259154;-0.06584055;
0;04:03:53:240;16.481684;3.1771057;
0;04:03:53:250;4.727351;-0.90620536;
0;04:03:53:260;-0.7445967;-1.5849615;
0;04:03:53:270;1.8507179;4.7644615;
0;04:03:53:280;-0.59376204;1.5753847;
0;04:03:53:290;-10.621876;3.2357635;
0;04:03:53:301;-3.582923;1.9381063;
0;04:03:53:311;14.271836;5.080496;
0;04:03:53:322;2.468422;-1.0498575;
0;04:03:53:332;-8.087613;6.862979;
0;04:03:53:343;3.9851487;-0.88944596;
0;04:03:53:354;-0.44891283;-6.4751186;
0;04:03:53:365;-0.5434838;0.8295909;
0;04:03:53:374;5.8622026;2.8215668;
0;04:03:53:385;7.8984714;4.6926355;
0;04:03:53:394;5.2983685;1.1611878;
0;04:03:53:404;6.05733;-0.93373865;
0;04:03:53:414;0.94930094;1.3443443;
0;04:03:53:425;2.2577322;-3.7612908;
0;04:03:53:436;1.0977415;0.24301147;
0;04:03:53:446;1.555034;5.5880666;
0;04:03:53:457;4.152743;-1.9488802;
0;04:03:53:468;3.4560301;2.5773582;
0;04:03:53:478;3.9217024;-0.8750807;
0;04:03:53:488;11.295844;-2.5127146;
0;04:03:53:499;-4.289212;-11.496957;
0;04:03:53:509;6.575675;-3.3051953;
0;04:03:53:519;16.998833;-0.59615624;
0;04:03:53:530;-13.388376;1.5921441;
0;04:03:53:540;5.9160724;6.4787097;
0;04:03:53:550;3.654749;-2.6144683;
0;04:03:53:560;-2.5785553;4.3394904;
0;04:03:53:571;1.1731589;3.4560301;
0;04:03:53:581;2.837129;2.8874073;
0;04:03:53:592;4.1359835;5.853823;
0;04:03:53:602;9.633071;3.7936125;
0;04:03:53:612;-4.0773253;-1.8782512;
0;04:03:53:622;-4.4113164;-4.570531;
0;04:03:53:633;-4.5358152;-6.477513;
0;04:03:53:643;-1.1049241;-0.24779987;
0;04:03:53:653;-3.7337575;-4.489128;
0;04:03:53:663;-5.021838;5.5760956;
0;04:03:53:673;0.8882488;2.336741;
0;04:03:53:684;3.6152446;3.0597897;
0;04:03:53:694;-1.1528081;2.9400797;
0;04:03:53:704;1.1947067;0.8619126;
0;04:03:53:714;3.1364043;-2.0769699;
0;04:03:53:724;1.7142484;-5.4324436;
0;04:03:53:735;-3.4261026;-2.0470424;
0;04:03:53:745;-1.0019734;0.6655881;
0;04:03:53:756;-9.688137;0.6488287;
0;04:03:53:767;3.843891;2.0757728;
0;04:03:53:778;-3.2932243;-2.2337902;
0;04:03:53:789;-3.5853171;-2.1092918;
0;04:03:53:800;-6.851008;0.22984336;
0;04:03:53:811;-3.5541923;-3.1603463;
0;04:03:53:821;-5.1930237;-3.0873232;
0;04:03:53:832;4.1120415;-2.858677;
0;04:03:53:842;-8.106767;-2.184709;
0;04:03:53:853;-12.093113;-4.1695023;
0;04:03:53:863;-8.842984;-0.8655039;
0;04:03:53:873;-2.954445;-3.691859;
0;04:03:53:883;-11.680113;-0.6799533;
0;04:03:53:894;-7.7572136;1.3958195;
0;04:03:53:905;-3.4727895;-7.3968863;
0;04:03:53:915;-10.642226;-2.4037786;
0;04:03:53:926;-10.642226;-2.4037786;
0;04:03:53:936;-8.656237;-4.060566;
0;04:03:53:945;-4.808754;-3.940856;
0;04:03:53:956;-2.6623523;1.7824832;
0;04:03:53:966;-11.719617;-7.07726;
0;04:03:53:976;-9.767146;1.6867151;
0;04:03:53:987;-8.066066;-2.528277;
0;04:03:53:997;2.348712;0.81163436;
0;04:03:54:008;-11.124659;-0.7422025;
0;04:03:54:018;-4.6339774;-3.144784;
0;04:03:54:029;-12.782643;0.7721301;
0;04:03:54:039;-12.427104;-3.8355112;
0;04:03:54:050;-11.453861;-2.5366566;
0;04:03:54:060;-6.9228344;-0.25498247;
0;04:03:54:071;-11.176133;-6.495469;
0;04:03:54:081;-16.11657;-1.6747441;
0;04:03:54:092;-3.2130187;-2.7521348;
0;04:03:54:102;-10.868479;-0.47644615;
0;04:03:54:112;-7.3549876;-4.8542438;
0;04:03:54:122;-3.5625722;-5.130774;
0;04:03:54:132;-4.950012;5.4300494;
0;04:03:54:143;-13.303382;-5.2540755;
0;04:03:54:154;-1.6460136;-3.502717;
0;04:03:54:164;-3.5170822;-0.5303157;
0;04:03:54:175;-9.775525;-0.4369418;
0;04:03:54:184;-13.132196;-1.934515;
0;04:03:54:195;-5.3235073;-4.1718965;
0;04:03:54:206;0.33399114;-4.4544125;
0;04:03:54:216;-6.2464724;-3.4452562;
0;04:03:54:227;-8.747216;-2.4624364;
0;04:03:54:238;-5.33907;-3.0202854;
0;04:03:54:248;-10.590752;1.2988545;
0;04:03:54:259;-12.040441;-0.34237084;
0;04:03:54:269;-9.258378;-2.6850972;
0;04:03:54:280;-7.5453267;-0.80205756;
0;04:03:54:290;-6.063316;5.816713;
0;04:03:54:301;-0.93014735;4.0653543;
0;04:03:54:311;-4.626795;1.7345991;
0;04:03:54:321;-5.663484;4.0916905;
0;04:03:54:332;-9.797073;3.927688;
0;04:03:54:342;-3.928885;0.9804256;
0;04:03:54:353;-0.22984336;8.577228;
0;04:03:54:363;-3.5482068;3.1064768;
0;04:03:54:374;-2.7281928;5.5521536;
0;04:03:54:384;-2.0602105;8.186973;
0;04:03:54:394;-4.1599255;3.4213142;
0;04:03:54:405;-2.4791958;5.092467;
0;04:03:54:415;-5.731719;5.3199162;
0;04:03:54:425;-8.333019;4.3526587;
0;04:03:54:436;-1.9907787;2.7210102;
0;04:03:54:446;-6.9707184;0.6811504;
0;04:03:54:457;-6.8557963;3.7373488;
0;04:03:54:467;8.631097;8.500613;
0;04:03:54:478;5.5365915;6.7480574;
0;04:03:54:488;8.040926;3.6607344;
0;04:03:54:499;-6.417658;5.0122614;
0;04:03:54:509;-5.6946087;3.0825348;
0;04:03:54:520;3.0454245;3.0573955;
0;04:03:54:529;3.0454245;3.0573955;
0;04:03:54:539;-6.4068837;3.1040826;
0;04:03:54:549;1.2473791;6.4164605;
0;04:03:54:560;-0.0023942017;0.19033903;
0;04:03:54:570;2.9712043;3.752911;
0;04:03:54:580;-0.2705448;-2.754529;
0;04:03:54:590;-0.34715924;5.8562174;
0;04:03:54:600;7.132327;4.8039656;
0;04:03:54:611;0.20470424;2.2589293;
0;04:03:54:621;-5.6335564;2.5701754;
0;04:03:54:632;8.073248;0.92775315;
0;04:03:54:642;-4.51307;2.1559787;
0;04:03:54:653;6.4751186;6.587646;
0;04:03:54:662;5.521029;-0.075417355;
0;04:03:54:673;5.6431336;0.50517654;
0;04:03:54:683;-4.9344497;0.038307227;
0;04:03:54:694;3.9755719;2.7377696;
0;04:03:54:705;2.433706;0.14844051;
0;04:03:54:716;5.279215;1.9596541;
0;04:03:54:726;0.46567222;0.40701428;
0;04:03:54:736;6.873753;5.493496;
0;04:03:54:747;8.677784;1.448492;
0;04:03:54:757;8.153454;5.6299653;
0;04:03:54:768;-3.6894648;5.12838;
0;04:03:54:778;3.240552;-0.10534488;
0;04:03:54:788;6.385336;-0.47884035;
0;04:03:54:798;3.3877954;3.0226796;
0;04:03:54:808;3.7708676;-0.09935937;
0;04:03:54:819;-1.9835961;3.5984852;
0;04:03:54:829;7.666234;0.5410896;
0;04:03:54:839;0.10654198;-3.265691;
0;04:03:54:849;-3.4153287;7.8386164;
0;04:03:54:860;7.620744;0.9888053;
0;04:03:54:870;10.518925;0.005985504;
0;04:03:54:881;-2.112883;-4.0916905;
0;04:03:54:891;-5.140351;-0.8631097;
0;04:03:54:902;4.8578353;-1.471237;
0;04:03:54:912;8.835801;5.1607018;
0;04:03:54:923;-6.453571;-1.0570401;
0;04:03:54:933;0.142455;3.751714;
0;04:03:54:943;0.58538234;-1.1623849;
0;04:03:54:954;-0.6691794;5.2421045;
0;04:03:54:965;3.1280246;-4.256891;
0;04:03:54:976;2.9041667;4.7058034;
0;04:03:54:985;0.78529817;1.1360487;
0;04:03:54:995;-1.8483237;5.662287;
0;04:03:55:006;-0.2885013;1.733402;
0;04:03:55:016;1.1097125;2.2218192;
0;04:03:55:027;3.0418332;2.3942018;
0;04:03:55:037;6.527791;1.6005238;
0;04:03:55:048;10.365696;1.9740193;
0;04:03:55:059;5.7808;0.34955344;
0;04:03:55:070;3.7960067;1.6711528;
0;04:03:55:080;7.469909;0.16639702;
0;04:03:55:091;-6.2165446;-0.4189853;
0;04:03:55:101;6.411672;0.8319851;
0;04:03:55:110;3.7481227;-3.0825348;
0;04:03:55:120;7.349002;0.5518635;
0;04:03:55:130;2.622848;-4.6220064;
0;04:03:55:141;-3.6990416;5.005079;
0;04:03:55:152;0.23822308;-1.0307038;
0;04:03:55:162;7.2664022;0.9600749;
0;04:03:55:173;5.5138464;-1.2006922;
0;04:03:55:184;8.243237;-0.21667525;
0;04:03:55:194;-2.3702598;1.0845734;
0;04:03:55:205;-6.8186865;-0.4309563;
0;04:03:55:215;1.3802572;4.691438;
0;04:03:55:226;2.2625206;-4.373009;
0;04:03:55:235;-0.8750807;0.0011971008;
0;04:03:55:246;2.7940333;-0.4441244;
0;04:03:55:256;-6.2368956;2.1679497;
0;04:03:55:267;-1.685518;-2.3690627;
0;04:03:55:277;7.2831616;7.5692687;
0;04:03:55:287;3.8151605;-6.0130377;
0;04:03:55:298;1.2090719;1.3275849;
0;04:03:55:308;-2.48159;-2.5797524;
0;04:03:55:318;-2.19668;-2.0266917;
0;04:03:55:329;7.2388687;-1.0618285;
0;04:03:55:339;-4.948815;5.783194;
0;04:03:55:350;5.044583;2.4720132;
0;04:03:55:361;-0.05267244;-0.21787235;
0;04:03:55:371;-0.5315128;-3.5350387;
0;04:03:55:381;3.2956185;2.4181437;
0;04:03:55:392;5.8693852;0.4189853;
0;04:03:55:403;-2.4995465;2.4480712;
0;04:03:55:413;-2.0027497;0.079008654;
0;04:03:55:423;2.349909;0.91578215;
0;04:03:55:433;-8.924387;-4.345476;
0;04:03:55:444;5.116409;-3.4368765;
0;04:03:55:455;5.886145;-0.15562311;
0;04:03:55:465;12.882002;-2.955642;
0;04:03:55:475;2.8443117;-3.6224272;
0;04:03:55:486;1.8483237;-1.7537527;
0;04:03:55:497;6.2847795;-4.3897686;
0;04:03:55:509;4.8602295;2.7042508;
0;04:03:55:520;19.941305;-5.115212;
0;04:03:55:530;9.062054;-5.805939;
0;04:03:55:541;8.631097;-3.478775;
0;04:03:55:551;1.7070658;2.8275523;
0;04:03:55:561;17.403452;-5.21098;
0;04:03:55:572;5.6766524;1.8938135;
0;04:03:55:583;13.813347;-4.8865657;
0;04:03:55:593;18.252197;-3.8510735;
0;04:03:55:604;7.7224975;-2.0961237;
0;04:03:55:614;7.1131735;-5.589264;
0;04:03:55:624;10.670957;-0.712275;
0;04:03:55:635;12.970588;-4.212598;
0;04:03:55:645;4.594473;1.1767502;
0;04:03:55:656;8.937555;0.29927522;
0;04:03:55:667;9.349358;-2.681506;
0;04:03:55:676;9.868899;0.5267244;
0;04:03:55:687;13.195642;-6.105214;
0;04:03:55:697;9.313444;0.029927522;
0;04:03:55:708;15.501259;-2.4732103;
0;04:03:55:718;4.8039656;0.23582886;
0;04:03:55:728;11.077971;-0.736217;
0;04:03:55:739;5.5282116;-3.0657754;
0;04:03:55:750;4.3502645;-4.3538556;
0;04:03:55:761;3.4715924;0.7565677;
0;04:03:55:772;4.5741224;-1.2401965;
0;04:03:55:783;12.175713;-2.2349873;
0;04:03:55:793;3.7852328;-2.6072857;
0;04:03:55:803;13.381193;-7.4746976;
0;04:03:55:814;7.3442135;1.5179238;
0;04:03:55:825;15.018827;-1.1623849;
0;04:03:55:836;13.937845;-3.6415808;
0;04:03:55:847;8.461109;0.4285621;
0;04:03:55:857;-0.7218518;-6.739678;
0;04:03:55:867;14.729129;6.82946;
0;04:03:55:878;22.902933;2.6013002;
0;04:03:55:888;14.02284;-8.53054;
0;04:03:55:899;11.11149;0.8475474;
0;04:03:55:909;19.193117;-6.453571;
0;04:03:55:920;19.668367;-0.9995792;
0;04:03:55:931;-1.033098;1.0510546;
0;04:03:55:941;-2.018312;3.0023289;
0;04:03:55:952;-4.5860934;-11.068395;
0;04:03:55:962;7.32506;9.233239;
0;04:03:55:972;-0.059855044;-3.0681696;
0;04:03:55:983;7.2592196;-5.088876;
0;04:03:55:993;13.735536;-0.78529817;
0;04:03:56:003;2.8443117;8.759187;
0;04:03:56:013;1.4030021;-4.936844;
0;04:03:56:023;11.68131;4.546589;
0;04:03:56:034;7.753622;-4.7405195;
0;04:03:56:044;14.273033;1.4772224;
0;04:03:56:055;8.512584;-10.372879;
0;04:03:56:065;0.6368576;0.095768064;
0;04:03:56:076;13.172897;-13.497313;
0;04:03:56:086;22.613235;-8.555679;
0;04:03:56:096;5.4049106;-4.5801077;
0;04:03:56:107;11.610682;-1.2629414;
0;04:03:56:116;11.04565;-6.2129536;
0;04:03:56:127;-8.748413;-0.5650316;
0;04:03:56:138;-12.337321;1.3730747;
0;04:03:56:149;-7.351396;8.620323;
0;04:03:56:159;5.8215013;5.0026846;
0;04:03:56:169;1.4437037;9.0429;
0;04:03:56:179;7.6770077;9.996989;
0;04:03:56:190;7.9954367;6.5984197;
0;04:03:56:201;14.4609785;4.3742065;
0;04:03:56:211;-1.352724;0.48243165;
0;04:03:56:221;5.01705;4.771644;
0;04:03:56:232;-3.3291376;-2.1906946;
0;04:03:56:242;-5.9531827;5.081693;
0;04:03:56:253;3.2609026;5.920861;
0;04:03:56:263;8.313866;2.480393;
0;04:03:56:273;-9.950302;5.109226;
0;04:03:56:284;-4.984728;-2.8622682;
0;04:03:56:294;-3.0226796;-0.1364695;
0;04:03:56:304;-8.08881;3.6164417;
0;04:03:56:315;-1.6101006;1.198298;
0;04:03:56:326;-5.007473;3.58412;
0;04:03:56:337;0.9828198;4.584896;
0;04:03:56:348;-1.2354081;0.17477672;
0;04:03:56:358;-0.5590461;-2.2768857;
0;04:03:56:368;-8.516175;2.018312;
0;04:03:56:379;-3.0657754;1.1695676;
0;04:03:56:389;3.4919431;8.866926;
0;04:03:56:400;8.139089;8.06008;
0;04:03:56:410;-5.076905;7.1143703;
0;04:03:56:421;1.1168951;6.5720835;
0;04:03:56:432;-0.59136784;2.3786395;
0;04:03:56:442;-2.1535845;1.365892;
0;04:03:56:453;5.398925;9.374496;
0;04:03:56:464;-6.6079965;2.9975405;
0;04:03:56:474;-3.6008794;4.096479;
0;04:03:56:484;-2.292448;-0.0011971008;
0;04:03:56:495;-0.80325466;-0.16998832;
0;04:03:56:506;-1.9153614;-0.051475335;
0;04:03:56:515;-0.9576807;0.2681506;
0;04:03:56:526;-1.6867151;0.51954174;
0;04:03:56:537;1.2569559;10.086772;
0;04:03:56:547;4.973954;5.04578;
0;04:03:56:558;-5.792771;1.6292542;
0;04:03:56:570;-5.4324436;3.8031895;
0;04:03:56:580;-2.731784;-1.3275849;
0;04:03:56:591;3.122039;1.13964;
0;04:03:56:601;1.2174516;1.6244658;
0;04:03:56:612;-1.8842367;4.3526587;
0;04:03:56:622;0.20470424;3.7313633;
0;04:03:56:632;-5.0002904;3.7588966;
0;04:03:56:643;4.736928;1.0606314;
0;04:03:56:653;4.701015;2.2984335;
0;04:03:56:663;1.4652514;0.62249243;
0;04:03:56:673;-7.37055;4.4220905;
0;04:03:56:683;-0.59376204;2.0649989;
0;04:03:56:694;2.6408045;5.9843073;
0;04:03:56:705;2.018312;-3.1555579;
0;04:03:56:714;1.8315643;4.187459;
0;04:03:56:725;0.09696517;1.6472107;
0;04:03:56:736;-6.3446345;0.2765303;
0;04:03:56:746;8.280347;1.2174516;
0;04:03:56:757;-5.403713;0.2908955;
0;04:03:56:767;3.7708676;-0.7685388;
0;04:03:56:777;-11.987768;-1.1480197;
0;04:03:56:788;-10.424355;-4.5501804;
0;04:03:56:799;-3.0011318;4.771644;
0;04:03:56:809;0.4189853;-2.789245;
0;04:03:56:820;-8.098388;1.6208745;
0;04:03:56:830;3.252523;-1.5334862;
0;04:03:56:841;-2.2493525;2.8862102;
0;04:03:56:852;7.0700774;0.8655039;
0;04:03:56:863;-3.6727054;2.408567;
0;04:03:56:873;2.4720132;4.4879313;
0;04:03:56:884;-4.6255975;3.8498764;
0;04:03:56:894;-6.0681043;4.3299136;
0;04:03:56:905;-12.661736;-0.45370123;
0;04:03:56:915;4.6662993;1.6065093;
0;04:03:56:926;8.243237;2.9137435;
0;04:03:56:937;-2.80361;3.8606503;
0;04:03:56:947;-4.024653;-1.6053122;
0;04:03:56:958;-2.0649989;4.8757915;
0;04:03:56:968;-2.3451207;3.1364043;
0;04:03:56:978;-6.941988;1.7944542;
0;04:03:56:989;0.037110128;-1.0031705;
0;04:03:56:999;-4.617218;4.3885717;
0;04:03:57:010;-1.436521;-1.7357962;
0;04:03:57:020;0.6619968;0.011971008;
0;04:03:57:031;-2.9879637;-2.2517467;
0;04:03:57:041;3.7840357;8.234857;
0;04:03:57:052;-9.490616;-1.7848774;
0;04:03:57:062;-3.643975;1.5095441;
0;04:03:57:072;7.1263413;3.1292217;
0;04:03:57:083;-0.1436521;-5.827487;
0;04:03:57:093;-4.7680526;7.359776;
0;04:03:57:103;3.4356794;5.5461683;
0;04:03:57:113;-0.7553706;2.4995465;
0;04:03:57:123;-5.577293;0.38187516;
0;04:03:57:134;5.866991;-2.0219033;
0;04:03:57:144;4.322731;4.560954;
0;04:03:57:155;-7.315483;-2.6312277;
0;04:03:57:166;5.5030727;3.7493198;
0;04:03:57:176;2.2828712;-1.5035586;
0;04:03:57:187;-5.7975593;4.817134;
0;04:03:57:197;-0.7015011;-2.8886044;
0;04:03:57:207;5.734113;5.9507885;
0;04:03:57:218;-0.1340753;-0.92535895;
0;04:03:57:229;-2.3187842;1.70946;
0;04:03:57:239;-2.2349873;-0.35194764;
0;04:03:57:249;-2.7234044;3.2872388;
0;04:03:57:260;0.4357447;-0.8607155;
0;04:03:57:270;5.0421886;1.8339585;
0;04:03:57:281;-2.36188;1.8447324;
0;04:03:57:291;0.8487445;-0.35553896;
0;04:03:57:302;-2.019509;1.2150574;
0;04:03:57:312;3.5781345;-2.6060886;
0;04:03:57:323;0.688333;1.3706805;
0;04:03:57:334;-4.0426097;2.4732103;
0;04:03:57:344;4.175488;-0.2753332;
0;04:03:57:354;-0.7398083;-1.79206;
0;04:03:57:365;7.8637557;2.3355439;
0;04:03:57:375;0.5590461;-0.14604631;
0;04:03:57:386;-3.7852328;-3.5446155;
0;04:03:57:396;-3.930082;-3.5577838;
0;04:03:57:407;-8.611943;-4.3382936;
0;04:03:57:417;-6.9048777;-3.157952;
0;04:03:57:427;0.9804256;-5.969942;
0;04:03:57:438;-9.676167;-0.17956513;
0;04:03:57:449;-4.498705;-3.4021606;
0;04:03:57:459;-1.435324;-1.8363527;
0;04:03:57:469;-0.24061728;-4.122815;
0;04:03:57:480;-7.8290396;-7.961918;
0;04:03:57:490;8.007407;6.4128695;
0;04:03:57:501;-8.109161;-4.0342298;
0;04:03:57:512;-10.398018;3.4919431;
0;04:03:57:522;-8.574833;-9.091981;
0;04:03:57:533;-5.931635;-4.0318356;
0;04:03:57:543;-2.4229321;-5.282806;
0;04:03:57:553;-5.768829;-6.1890116;
0;04:03:57:564;-9.449914;5.4911017;
0;04:03:57:574;-15.491682;-4.486734;
0;04:03:57:583;-11.3138;-0.82599956;
0;04:03:57:593;3.942053;-1.8243817;
0;04:03:57:603;-8.043321;1.4544775;
0;04:03:57:613;-7.631518;-5.16549;
0;04:03:57:624;-13.317747;-0.5686229;
0;04:03:57:634;-15.240291;0.32920274;
0;04:03:57:645;-7.275979;-0.30765492;
0;04:03:57:655;-12.63899;-3.5757403;
0;04:03:57:666;-5.0996494;-1.2378023;
0;04:03:57:677;1.7788919;-2.7617116;
0;04:03:57:687;-12.665327;-0.92296475;
0;04:03:57:697;-7.2939353;0.23463176;
0;04:03:57:708;-3.0561984;-1.6280571;
0;04:03:57:719;-2.1416135;1.5023615;
0;04:03:57:729;-14.913483;-5.9783216;
0;04:03:57:740;6.445191;2.4169466;
0;04:03:57:751;-18.369513;-2.2254105;
0;04:03:57:762;-7.7464395;-1.9728222;
0;04:03:57:772;0.06584055;2.9400797;
0;04:03:57:782;-3.8295257;-6.931214;
0;04:03:57:793;-6.977901;2.0159178;
0;04:03:57:803;0.06584055;-4.4819455;
0;04:03:57:813;-13.360843;-1.5310919;
0;04:03:57:823;-14.603434;-10.125079;
0;04:03:57:834;-10.5680065;-4.4316673;
0;04:03:57:844;-2.2756886;1.8842367;
0;04:03:57:854;-13.090298;-9.817424;
0;04:03:57:865;-10.42196;-2.3223755;
0;04:03:57:876;-1.3790601;-1.5514427;
0;04:03:57:886;2.9819782;3.4368765;
0;04:03:57:897;-8.702923;6.4739213;
0;04:03:57:908;-4.995502;-3.5972881;
0;04:03:57:918;-13.711593;3.9193082;
0;04:03:57:929;-4.3418846;2.3319526;
0;04:03:57:940;-7.465121;-4.3155484;
0;04:03:57:950;-9.817424;4.80636;
0;04:03:57:960;-2.1942859;6.3685765;
0;04:03:57:971;-5.2804117;2.7485435;
0;04:03:57:981;1.6053122;14.696807;
0;04:03:57:992;-6.64391;7.645883;
0;04:03:58:002;6.71813;7.0964136;
0;04:03:58:012;-9.668983;6.171055;
0;04:03:58:023;2.8981812;3.1651347;
0;04:03:58:033;-9.42238;11.275493;
0;04:03:58:043;-9.635465;-5.9651537;
0;04:03:58:053;-11.488577;3.5206735;
0;04:03:58:064;-0.5255273;4.8099513;
0;04:03:58:075;-6.149507;1.9500773;
0;04:03:58:086;-9.48463;-1.9261353;
0;04:03:58:096;1.5658079;5.2863975;
0;04:03:58:108;0.7673417;4.583699;
0;04:03:58:117;3.5865142;-4.0857053;
0;04:03:58:127;6.23091;1.5717934;
0;04:03:58:137;-5.616797;-0.016759412;
0;04:03:58:147;-2.9700072;8.467094;
0;04:03:58:158;4.295198;3.2345665;
0;04:03:58:167;3.1747115;5.1104236;
0;04:03:58:177;1.6364368;-1.5442601;
0;04:03:58:188;-1.292869;-4.4903255;
0;04:03:58:198;1.4796166;1.1575965;
0;04:03:58:208;1.1659763;9.176975;
0;04:03:58:218;4.1826706;0.39743748;
0;04:03:58:229;-3.1830912;0.50517654;
0;04:03:58:239;7.654263;3.7229836;
0;04:03:58:250;-3.1890767;1.0510546;
0;04:03:58:261;-9.443929;2.0254946;
0;04:03:58:272;-4.1742907;-0.15203181;
0;04:03:58:281;1.8866309;5.0613422;
0;04:03:58:291;7.1059904;-1.6723499;
0;04:03:58:301;-0.60094464;4.4244847;
0;04:03:58:311;-1.733402;-2.4109612;
0;04:03:58:321;4.638766;8.127118;
0;04:03:58:332;-0.25737667;-3.8007953;
0;04:03:58:342;-9.461885;8.553286;
0;04:03:58:352;-0.5434838;-3.4943373;
0;04:03:58:363;0.81881696;-2.2026656;
0;04:03:58:373;7.004237;-1.3108255;
0;04:03:58:384;-3.4476504;-3.7469256;
0;04:03:58:394;-2.6324248;1.3347675;
0;04:03:58:405;0.39983168;9.657013;
0;04:03:58:415;-2.6611552;-2.15957;
0;04:03:58:426;4.856638;5.4863133;
0;04:03:58:437;8.039729;2.4277205;
0;04:03:58:447;-0.8391677;-2.1021092;
0;04:03:58:457;-3.5685577;-2.360683;
0;04:03:58:467;-10.636241;2.859874;
0;04:03:58:478;-4.2556934;1.5634137;
0;04:03:58:488;4.334702;4.3263226;
0;04:03:58:498;0.59735334;-1.9177556;
0;04:03:58:509;5.543774;-5.116409;
0;04:03:58:519;-6.9623384;-3.3997664;
0;04:03:58:530;-2.3235726;-2.7629087;
0;04:03:58:540;-2.7497406;-3.870227;
0;04:03:58:551;8.282741;1.0414777;
0;04:03:58:561;5.9148755;0.5722142;
0;04:03:58:572;7.4854717;0.4213795;
0;04:03:58:582;-2.3211784;-0.14724341;
0;04:03:58:592;-5.020641;-3.8738184;
0;04:03:58:603;3.6248214;-1.7908629;
0;04:03:58:613;5.9867015;-3.916914;
0;04:03:58:624;-2.0602105;-3.6762967;
0;04:03:58:634;-8.817844;-1.2354081;
0;04:03:58:645;1.5167267;3.2561142;
0;04:03:58:656;12.732365;-0.10534488;
0;04:03:58:667;2.5486276;1.2401965;
0;04:03:58:677;6.301539;-1.5717934;
0;04:03:58:688;8.526949;1.3156139;
0;04:03:58:699;-1.5897499;-3.3075895;
0;04:03:58:709;-3.4105403;-1.3946224;
0;04:03:58:720;-5.683835;-1.2593501;
0;04:03:58:730;3.2202013;-4.9404354;
0;04:03:58:741;1.1959038;3.0921116;
0;04:03:58:751;-0.8834604;-0.6811504;
0;04:03:58:762;-5.637148;2.220622;
0;04:03:58:772;6.939594;-1.4556746;
0;04:03:58:782;5.2852;-3.8498764;
0;04:03:58:793;-5.711368;-4.3742065;
0;04:03:58:803;-6.578069;0.9792285;
0;04:03:58:815;8.249222;4.1120415;
0;04:03:58:828;-0.6392518;2.8790276;
0;04:03:58:836;8.9602995;-2.7365725;
0;04:03:58:846;-0.130484;-1.520318;
0;04:03:58:856;0.60812724;-4.781221;
0;04:03:58:866;-2.9771898;-0.010773907;
0;04:03:58:877;-3.2501287;-2.6156654;
0;04:03:58:887;0.19273324;2.086547;
0;04:03:58:897;8.327033;2.432509;
0;04:03:58:908;-3.6978445;-5.177461;
0;04:03:58:918;-7.9990277;0.7110779;
0;04:03:58:928;-0.16879122;3.0681696;
0;04:03:58:938;4.4915223;-3.6212301;
0;04:03:58:948;-2.8526914;-6.3697734;
0;04:03:58:959;-9.841366;-6.254852;
0;04:03:58:969;-13.785813;-4.987122;
0;04:03:58:980;-2.409764;-2.0003555;
0;04:03:58:990;-4.5860934;-4.5525746;
0;04:03:59:000;-10.512939;-4.9188876;
0;04:03:59:010;1.7729063;1.946486;
0;04:03:59:020;-0.45250413;2.7748797;
0;04:03:59:030;-1.7896658;0.18076223;
0;04:03:59:040;-14.267048;-0.1376666;
0;04:03:59:051;-9.645041;-4.056975;
0;04:03:59:062;-5.7724204;0.93613285;
0;04:03:59:072;-4.663905;-3.2800562;
0;04:03:59:083;-5.645528;-2.6192567;
0;04:03:59:093;-11.227609;0.90381116;
0;04:03:59:104;-7.6135616;-1.3742718;
0;04:03:59:114;-7.156269;1.0031705;
0;04:03:59:124;-3.1866825;-0.78649527;
0;04:03:59:134;-4.390966;-0.35075054;
0;04:03:59:145;-5.5581393;0.0023942017;
0;04:03:59:156;-8.89805;-1.234211;
0;04:03:59:165;-7.926005;0.58897364;
0;04:03:59:176;-6.50744;1.6759412;
0;04:03:59:187;-6.4380083;-4.8961425;
0;04:03:59:197;-3.9085343;-3.1184478;
0;04:03:59:207;-6.4427967;-3.3183637;
0;04:03:59:218;-4.5166616;1.8124107;
0;04:03:59:229;-0.2837129;-0.7517793;
0;04:03:59:239;-4.203021;-1.079785;
0;04:03:59:250;-8.552089;-1.1468226;
0;04:03:59:261;-0.79367787;2.5845408;
0;04:03:59:272;-6.742072;-0.3172317;
0;04:03:59:282;-9.64983;-2.2768857;
0;04:03:59:292;-2.1691468;-2.0829554;
0;04:03:59:303;-3.3183637;1.1767502;
0;04:03:59:313;-1.3814543;-0.029927522;
0;04:03:59:323;-3.9097314;1.4317327;
0;04:03:59:334;1.3575124;-0.49559975;
0;04:03:59:344;-6.0501475;4.27365;
0;04:03:59:354;-4.1132383;-0.9959879;
0;04:03:59:365;1.5753847;3.2477345;
0;04:03:59:375;-0.21667525;-1.4664485;
0;04:03:59:385;-4.268862;3.9025488;
0;04:03:59:395;-1.6041151;1.3611037;
0;04:03:59:405;2.1080947;1.2401965;
0;04:03:59:415;2.7736826;4.176685;
0;04:03:59:425;-1.0151415;-2.243367;
0;04:03:59:436;-0.44532153;2.123657;
0;04:03:59:446;-3.6332011;0.7218518;
0;04:03:59:457;-1.283292;1.9153614;
0;04:03:59:468;2.7700913;3.1723173;
0;04:03:59:479;-0.10055647;2.64679;
0;04:03:59:489;-2.1679497;1.6771383;
0;04:03:59:500;-4.638766;-0.91338795;
0;04:03:59:510;-2.110489;3.7553053;
0;04:03:59:520;6.6750345;2.0602105;
0;04:03:59:531;0.18315643;3.5984852;
0;04:03:59:541;1.2988545;2.1859062;
0;04:03:59:552;-0.81283146;5.1786585;
0;04:03:59:562;5.2145715;3.5051112;
0;04:03:59:572;-7.439982;-0.46327803;
0;04:03:59:583;4.644751;-4.3035774;
0;04:03:59:593;-4.158728;-1.2844892;
0;04:03:59:604;6.325481;-2.1176715;
0;04:03:59:614;-11.020511;0.46567222;
0;04:03:59:624;6.827066;7.8469963;
0;04:03:59:635;-0.2777274;11.669339;
0;04:03:59:645;-1.2401965;4.271256;
0;04:03:59:656;9.685743;4.9799395;
0;04:03:59:666;-0.7302315;-4.5202527;
0;04:03:59:676;-7.904457;-2.1871033;
0;04:03:59:687;-8.925584;-0.0035913025;
0;04:03:59:698;-2.9352913;4.4699745;
0;04:03:59:708;-2.3511062;3.8259344;
0;04:03:59:719;0.39384618;5.171476;
0;04:03:59:729;0.7218518;1.6795325;
0;04:03:59:740;-5.662287;-4.7979803;
0;04:03:59:750;5.366603;-2.1918917;
0;04:03:59:760;-8.018182;-2.2182279;
0;04:03:59:771;-3.0813377;0.59974754;
0;04:03:59:781;5.8933277;5.922058;
0;04:03:59:792;8.465898;0.1364695;
0;04:03:59:802;0.46686932;-0.1340753;
0;04:03:59:813;7.632715;-4.981137;
0;04:03:59:823;2.6491842;-0.49919105;
0;04:03:59:834;2.8455088;-0.12090719;
0;04:03:59:845;-13.606248;2.835932;
0;04:03:59:855;7.9331875;2.9317;
0;04:03:59:865;-0.82719666;-0.8595184;
0;04:03:59:876;3.6224272;6.8893156;
0;04:03:59:885;-0.61770403;-2.815581;
0;04:03:59:896;-3.3243492;2.8526914;
0;04:03:59:906;0.2741361;4.6698904;
0;04:03:59:917;-6.3063273;-0.59136784;
0;04:03:59:927;-2.4253263;-4.7788267;
0;04:03:59:937;-7.038953;-9.595961;
0;04:03:59:947;-3.2848446;1.2880806;
0;04:03:59:957;23.088484;10.218452;
0;04:03:59:967;-4.3263226;-8.956709;
0;04:03:59:978;-6.59004;-6.9946604;
0;04:03:59:988;-12.850878;-4.97156;
0;04:03:59:999;6.405687;26.230873;
0;04:04:00:010;21.4712;8.839393;
0;04:04:00:020;23.754072;-3.015497;
0;04:04:00:031;-5.4061074;0.12090719;
0;04:04:00:041;-6.9527617;0.8822633;
0;04:04:00:051;12.229582;4.5896845;
0;04:04:00:061;6.133945;-7.5812397;
0;04:04:00:071;13.06037;-3.2597055;
0;04:04:00:082;-12.181698;-3.1783028;
0;04:04:00:092;-10.9343195;-6.181829;
0;04:04:00:103;-6.077681;6.2979474;
0;04:04:00:113;1.0522517;-2.2768857;
0;04:04:00:123;11.073183;4.76925;
0;04:04:00:133;4.781221;-0.6512229;
0;04:04:00:144;8.711303;2.7509377;
0;04:04:00:154;-1.2306197;-5.0661306;
0;04:04:00:165;-5.341464;-1.3718776;
0;04:04:00:175;-0.12808979;-2.7509377;
0;04:04:00:185;-4.0294414;5.009867;
0;04:04:00:195;2.1440077;1.827973;
0;04:04:00:205;3.4943373;6.5984197;
0;04:04:00:215;-4.933253;4.8147397;
0;04:04:00:225;3.0538042;2.0614076;
0;04:04:00:235;1.1348516;-2.1332338;
0;04:04:00:245;7.65546;-4.1814733;
0;04:04:00:255;0.11372458;-1.0007763;
0;04:04:00:265;3.6020765;3.693056;
0;04:04:00:276;0.5315128;-1.6077064;
0;04:04:00:285;-5.076905;0.36750996;
0;04:04:00:295;6.566098;1.8555063;
0;04:04:00:306;2.372654;5.398925;
0;04:04:00:317;-3.1735144;1.30484;
0;04:04:00:327;2.8383262;2.6779146;
0;04:04:00:337;2.3511062;-5.7305217;
0;04:04:00:348;-7.0245876;0.33518824;
0;04:04:00:358;-11.6908865;2.9903579;
0;04:04:00:368;0.34117374;-5.342661;
0;04:04:00:379;-10.121488;-6.6079965;
0;04:04:00:390;4.547786;7.493851;
0;04:04:00:400;-3.4117374;1.447295;
0;04:04:00:410;4.345476;2.3355439;
0;04:04:00:421;1.7345991;-4.271256;
0;04:04:00:431;3.3722332;-2.267309;
0;04:04:00:441;-0.8595184;-2.64679;
0;04:04:00:452;15.868769;3.6583402;
0;04:04:00:462;2.054225;-0.5231331;
0;04:04:00:473;2.9484594;3.764882;
0;04:04:00:483;-5.315128;0.34476504;
0;04:04:00:492;-5.3965306;4.614824;
0;04:04:00:502;7.165846;2.822764;
0;04:04:00:512;-1.8052281;3.6535518;
0;04:04:00:523;-3.2980127;-4.675876;
0;04:04:00:534;8.526949;3.7421372;
0;04:04:00:545;2.3654714;-1.7381904;
0;04:04:00:555;2.7832594;1.5143325;
0;04:04:00:566;4.606444;3.4967315;
0;04:04:00:576;-4.4244847;8.031349;
0;04:04:00:587;11.572374;-1.5502456;
0;04:04:00:598;14.308947;-4.4879313;
0;04:04:00:609;6.621165;5.567716;
0;04:04:00:620;0.049081136;-1.62686;
0;04:04:00:631;0.16879122;1.9117701;
0;04:04:00:641;11.246762;-3.0885203;
0;04:04:00:652;-5.4767365;-0.33399114;
0;04:04:00:662;3.5889084;-2.0769699;
0;04:04:00:673;17.080235;-3.7840357;
0;04:04:00:683;18.962078;-6.3745623;
0;04:04:00:693;6.5385647;8.41921;
0;04:04:00:704;-9.2907;-5.019444;
0;04:04:00:715;-2.9281087;7.433996;
0;04:04:00:726;11.822568;-3.5242648;
0;04:04:00:737;8.4647;-0.4333505;
0;04:04:00:748;5.0134583;0.7469909;
0;04:04:00:758;1.2557588;0.38067806;
0;04:04:00:769;12.7096195;-0.1388637;
0;04:04:00:780;13.081918;4.8386817;
0;04:04:00:791;9.14585;-3.120842;
0;04:04:00:802;10.448297;2.3942018;
0;04:04:00:813;11.172543;-0.23582886;
0;04:04:00:823;4.8961425;-1.2282255;
0;04:04:00:834;9.524135;0.6404489;
0;04:04:00:844;4.152743;-2.030283;
0;04:04:00:854;4.152743;-2.030283;
0;04:04:00:864;12.431892;-2.19668;
0;04:04:00:875;4.698621;-0.7697359;
0;04:04:00:885;10.888829;-1.2318168;
0;04:04:00:895;0.20709845;-4.859032;
0;04:04:00:906;10.981006;-1.8818425;
0;04:04:00:916;1.0079589;-8.503007;
0;04:04:00:926;15.097836;3.86903;
0;04:04:00:936;11.587936;-1.1336545;
0;04:04:00:947;1.661576;3.4763808;
0;04:04:00:957;5.8442464;0.90500826;
0;04:04:00:967;8.584411;0.63206923;
0;04:04:00:977;2.408567;-0.6332663;
0;04:04:00:987;11.303026;-0.17597382;
0;04:04:00:997;7.5884223;-3.0262709;
0;04:04:01:008;5.3115363;2.9532478;
0;04:04:01:017;8.822633;-3.405752;
0;04:04:01:028;5.0062757;-0.14724341;
0;04:04:01:038;12.607866;-0.23463176;
0;04:04:01:048;15.389929;-3.1878796;
0;04:04:01:058;-5.032612;0.94930094;
0;04:04:01:069;0.11252748;-4.104859;
0;04:04:01:079;8.750807;-2.5187001;
0;04:04:01:090;15.938201;-0.7781156;
0;04:04:01:101;4.392163;3.9492357;
0;04:04:01:111;7.667431;2.304419;
0;04:04:01:121;10.638636;1.8543092;
0;04:04:01:131;4.2305546;0.9840169;
0;04:04:01:140;13.4661875;-4.1946416;
0;04:04:01:150;6.3326635;-2.6910827;
0;04:04:01:161;7.801506;-0.18315643;
0;04:04:01:171;2.0458453;-3.1376014;
0;04:04:01:182;2.7377696;2.5605986;
0;04:04:01:192;12.745533;-1.9297266;
0;04:04:01:203;-0.034715924;-3.4021606;
0;04:04:01:213;7.6985555;3.572149;
0;04:04:01:223;6.5265937;-2.8335378;
0;04:04:01:233;7.2209125;-1.3227965;
0;04:04:01:243;6.567295;-1.5658079;
0;04:04:01:253;5.723339;-2.943671;
0;04:04:01:264;-0.9636662;-2.1284454;
0;04:04:01:273;5.5365915;0.1316811;
0;04:04:01:283;3.0214825;-5.911284;
0;04:04:01:293;8.182184;1.1528081;
0;04:04:01:303;9.083601;-2.44448;
0;04:04:01:314;2.4241292;2.2852654;
0;04:04:01:324;5.494693;1.3515269;
0;04:04:01:335;10.723629;-4.0066967;
0;04:04:01:345;-1.6448165;-3.9624038;
0;04:04:01:356;12.927492;1.7896658;
0;04:04:01:367;1.5442601;-2.754529;
0;04:04:01:378;6.3003416;0.7038953;
0;04:04:01:389;3.5625722;0.40701428;
0;04:04:01:399;5.4551888;-1.8136078;
0;04:04:01:409;9.642648;-0.051475335;
0;04:04:01:420;9.546879;-0.5327099;
0;04:04:01:430;6.9647326;1.3275849;
0;04:04:01:440;6.9647326;1.3275849;
0;04:04:01:450;10.811018;-3.4835634;
0;04:04:01:460;3.738546;1.447295;
0;04:04:01:471;6.5936313;-0.93493575;
0;04:04:01:482;14.033613;-6.30513;
0;04:04:01:491;4.578911;2.123657;
0;04:04:01:501;7.3549876;-0.5566519;
0;04:04:01:512;5.602432;-2.5067291;
0;04:04:01:522;9.102755;1.8076223;
0;04:04:01:533;4.531027;-2.8502972;
0;04:04:01:543;6.281188;-1.3910311;
0;04:04:01:553;4.6818614;-0.10534488;
0;04:04:01:563;2.7210102;-1.6699557;
0;04:04:01:573;4.5418005;-2.8898015;
0;04:04:01:584;5.8837504;-0.107739076;
0;04:04:01:594;0.39145198;-1.1707647;
0;04:04:01:604;9.097966;-0.35673606;
0;04:04:01:615;6.0250087;-1.3623008;
0;04:04:01:625;10.764331;1.5310919;
0;04:04:01:635;5.853823;-1.6771383;
0;04:04:01:645;6.83784;2.9520507;
0;04:04:01:655;9.264363;-1.6627731;
0;04:04:01:666;4.9188876;-0.80086046;
0;04:04:01:676;5.66109;-0.24181437;
0;04:04:01:685;5.66109;-0.24181437;
0;04:04:01:696;8.967483;-0.19393034;
0;04:04:01:707;1.4748282;-1.103727;
0;04:04:01:717;10.060435;1.8590976;
0;04:04:01:727;5.723339;0.10414778;
0;04:04:01:737;11.316195;-1.8387469;
0;04:04:01:747;5.3127337;2.3295584;
0;04:04:01:757;0.47884035;-2.1272483;
0;04:04:01:767;12.494142;-1.0857705;
0;04:04:01:777;-0.11851298;0.7074866;
0;04:04:01:787;4.247314;-2.468422;
0;04:04:01:797;1.9416976;-4.6351743;
0;04:04:01:808;11.316195;2.7832594;
0;04:04:01:819;1.5095441;0.016759412;
0;04:04:01:830;11.426328;1.0869676;
0;04:04:01:840;1.30484;-1.5406688;
0;04:04:01:851;0.36750996;4.614824;
0;04:04:01:862;2.110489;5.1810527;
0;04:04:01:872;9.403227;1.7884687;
0;04:04:01:882;1.1994951;-0.49081135;
0;04:04:01:893;6.493075;3.7900212;
0;04:04:01:903;10.305841;1.9800048;
0;04:04:01:914;5.5162406;2.597709;
0;04:04:01:924;10.469844;2.5378537;
0;04:04:01:934;-4.938041;0.89902276;
0;04:04:01:945;0.44532153;-2.3594859;
0;04:04:01:956;0.6859388;1.9871874;
0;04:04:01:966;4.9069166;4.4280763;
0;04:04:01:977;-1.3634979;0.5650316;
0;04:04:01:988;6.9132576;-1.6208745;
0;04:04:01:998;-10.647015;-0.1316811;
0;04:04:02:009;6.481104;4.039018;
0;04:04:02:019;1.7298107;5.9483943;
0;04:04:02:030;5.306748;-1.9752164;
0;04:04:02:040;-0.6739678;-2.0626047;
0;04:04:02:051;-5.99149;-1.1492168;
0;04:04:02:062;-2.610877;1.2066777;
0;04:04:02:072;-6.513426;3.4620156;
0;04:04:02:083;-0.6775591;3.309984;
0;04:04:02:093;0.31364042;1.5873557;
0;04:04:02:104;-1.5095441;-2.4492683;
0;04:04:02:114;3.9923313;1.3515269;
0;04:04:02:124;-3.630807;3.4632127;
0;04:04:02:135;2.4253263;5.7377043;
0;04:04:02:145;-0.6655881;3.3530796;
0;04:04:02:156;0.8762778;3.1495724;
0;04:04:02:166;-10.356119;-4.0880995;
0;04:04:02:177;2.9951463;0.9636662;
0;04:04:02:187;-2.801216;0.59974754;
0;04:04:02:197;-4.346673;-0.2777274;
0;04:04:02:208;2.2122424;5.6060233;
0;04:04:02:219;-0.24779987;1.7836803;
0;04:04:02:228;-0.36631286;0.47285482;
0;04:04:02:238;3.2070332;-2.0853498;
0;04:04:02:249;-3.8139634;-4.271256;
0;04:04:02:259;6.8569937;-1.0570401;
0;04:04:02:270;-11.540052;0.50996494;
0;04:04:02:281;-2.2972364;3.2800562;
0;04:04:02:292;4.5382094;3.6834793;
0;04:04:02:302;-1.3012487;4.935647;
0;04:04:02:312;6.4188547;-4.280833;
0;04:04:02:322;5.5485625;-3.0142999;
0;04:04:02:333;-5.3582234;-0.94570965;
0;04:04:02:344;-1.6915035;2.9520507;
0;04:04:02:354;-5.8346696;-1.6424223;
0;04:04:02:365;-2.5809495;6.0764837;
0;04:04:02:376;1.8650831;1.8183962;
0;04:04:02:387;-1.3982137;2.8562827;
0;04:04:02:397;1.4077905;2.7006595;
0;04:04:02:408;-6.9527617;-1.6986861;
0;04:04:02:419;2.1930888;0.2765303;
0;04:04:02:429;-2.328361;5.5401826;
0;04:04:02:441;4.7524905;3.6391866;
0;04:04:02:452;1.8974048;-1.5454572;
0;04:04:02:462;5.8837504;-1.0259154;
0;04:04:02:473;-0.9876082;-2.0638018;
0;04:04:02:483;-4.915296;-2.2014685;
0;04:04:02:493;4.0497923;-0.4261679;
0;04:04:02:504;-3.0992942;5.907693;
0;04:04:02:514;-5.2277393;-0.3184288;
0;04:04:02:525;-2.5965118;3.5290532;
0;04:04:02:535;9.648633;-1.3239936;
0;04:04:02:546;7.735666;-3.2213984;
0;04:04:02:555;5.3474493;1.4772224;
0;04:04:02:566;-3.3195608;3.110068;
0;04:04:02:577;-9.380483;4.2305546;
0;04:04:02:587;1.8088194;0.5686229;
0;04:04:02:597;10.275913;-0.37828386;
0;04:04:02:608;8.564059;-2.7581203;
0;04:04:02:618;-3.0083144;-2.3570917;
0;04:04:02:629;-6.233304;6.105214;
0;04:04:02:639;-2.8167782;-2.669535;
0;04:04:02:650;2.0626047;1.7549498;
0;04:04:02:661;-0.8439561;-3.4703953;
0;04:04:02:671;4.465186;-1.4269443;
0;04:04:02:681;-4.7201686;-0.10055647;
0;04:04:02:692;-3.4859576;-1.4879963;
0;04:04:02:702;-3.8857894;-3.4955344;
0;04:04:02:712;-8.965088;0.46447513;
0;04:04:02:723;1.7609353;-2.9281087;
0;04:04:02:733;-11.218032;-3.940856;
0;04:04:02:743;-7.133524;-0.38307226;
0;04:04:02:754;-11.362882;-12.248735;
0;04:04:02:764;-7.261614;5.5737014;
0;04:04:02:775;-9.343372;-1.7118542;
0;04:04:02:785;-3.940856;-1.8207904;
0;04:04:02:796;-5.01705;1.2641385;
0;04:04:02:807;-10.712855;-6.7001734;
0;04:04:02:817;5.9268465;4.4400473;
0;04:04:02:827;-13.36204;-5.949591;
0;04:04:02:838;-2.9460652;-0.4309563;
0;04:04:02:849;-22.35945;-7.216124;
0;04:04:02:859;-15.982493;-5.1666875;
0;04:04:02:869;-16.178818;-2.3810337;
0;04:04:02:880;5.559336;-4.1156325;
0;04:04:02:891;4.235343;0.80086046;
0;04:04:02:901;-0.17597382;-6.215348;
0;04:04:02:911;14.231135;6.229713;
0;04:04:02:922;-8.319851;-3.084929;
0;04:04:02:933;-14.173674;-5.554548;
0;04:04:02:943;-23.722948;-6.302736;
0;04:04:02:953;6.6786256;7.5213847;
0;04:04:02:963;10.108319;-9.157822;
0;04:04:02:973;-18.22586;0.770933;
0;04:04:02:983;11.659762;2.1212628;
0;04:04:02:994;-18.297686;-1.2138603;
0;04:04:03:004;-24.08926;0.22146365;
0;04:04:03:015;-20.379444;-7.1550717;
0;04:04:03:025;0.16160862;1.1133038;
0;04:04:03:035;-15.45936;-2.754529;
0;04:04:03:045;3.857059;1.7633295;
0;04:04:03:055;3.9576154;-1.5897499;
0;04:04:03:065;-24.064121;-2.432509;
0;04:04:03:075;4.10845;5.4551888;
0;04:04:03:086;0.16759412;-4.629189;
0;04:04:03:096;-9.840169;1.9321208;
0;04:04:03:106;-3.4488475;4.4903255;
0;04:04:03:117;4.909311;-5.4527946;
0;04:04:03:126;-16.694769;-1.283292;
0;04:04:03:137;4.6220064;-0.35913026;
0;04:04:03:147;-10.468647;-6.007052;
0;04:04:03:157;-12.140997;-2.5342624;
0;04:04:03:167;0.48362875;-1.365892;
0;04:04:03:177;-6.479907;-8.763975;
0;04:04:03:187;-21.668722;-2.019509;
0;04:04:03:197;-9.409213;5.6922145;
0;04:04:03:207;-5.329493;-9.091981;
0;04:04:03:217;8.346188;1.7537527;
0;04:04:03:227;-7.7907324;2.7688942;
0;04:04:03:238;-7.089231;-1.0893618;
0;04:04:03:249;-8.785523;-4.736928;
0;04:04:03:259;-10.524911;0.3878607;
0;04:04:03:269;-15.118187;-2.3511062;
0;04:04:03:280;-12.726379;0.6572084;
0;04:04:03:291;-12.740745;-0.7757214;
0;04:04:03:300;-4.783615;-4.9188876;
0;04:04:03:310;4.1491513;1.8195933;
0;04:04:03:321;-11.289858;-4.642357;
0;04:04:03:332;-8.7532015;-0.8331822;
0;04:04:03:343;-6.5696893;-7.076063;
0;04:04:03:353;-4.2640734;-0.830788;
0;04:04:03:364;-3.0933087;-2.0925324;
0;04:04:03:375;-8.554482;-3.4943373;
0;04:04:03:386;-4.4196963;-0.973243;
0;04:04:03:396;-5.437232;-3.084929;
0;04:04:03:407;-7.15986;-0.6775591;
0;04:04:03:417;-3.4931402;-1.258153;
0;04:04:03:428;-2.8993783;-3.3602622;
0;04:04:03:438;-6.775591;-3.1184478;
0;04:04:03:449;-17.326838;-0.011971008;
0;04:04:03:459;-2.4289176;-3.9612067;
0;04:04:03:469;0.5805939;-2.0003555;
0;04:04:03:479;-5.222951;-0.4213795;
0;04:04:03:489;-3.2429461;1.2078748;
0;04:04:03:499;-16.048334;0.91817635;
0;04:04:03:509;-10.611102;-6.517017;
0;04:04:03:519;-7.3466077;-4.0821137;
0;04:04:03:529;-7.6375036;-3.5098996;
0;04:04:03:540;-4.485537;1.7238252;
0;04:04:03:550;-4.134786;-1.7405846;
0;04:04:03:561;5.342661;4.9069166;
0;04:04:03:572;-12.366052;-3.5314474;
0;04:04:03:581;0.16998832;2.0817583;
0;04:04:03:592;1.9800048;6.409278;
0;04:04:03:602;0.7098808;4.5166616;
0;04:04:03:613;-5.9627595;2.9712043;
0;04:04:03:623;0.092176765;3.952827;
0;04:04:03:633;-1.067814;4.757279;
0;04:04:03:645;-6.4858923;2.3475149;
0;04:04:03:655;-1.733402;2.2601264;
0;04:04:03:666;0.94211835;8.944737;
0;04:04:03:677;6.221333;2.6491842;
0;04:04:03:687;-2.9508536;4.0976763;
0;04:04:03:698;-3.122039;7.5944076;
0;04:04:03:708;-1.1875241;7.589619;
0;04:04:03:718;-0.8319851;9.646238;
0;04:04:03:729;-7.2472486;3.0921116;
0;04:04:03:740;-0.92057055;4.509479;
0;04:04:03:750;4.793192;0.18674773;
0;04:04:03:760;-2.208651;2.6791117;
0;04:04:03:771;2.2697031;10.123882;
0;04:04:03:781;-2.3906105;0.39384618;
0;04:04:03:792;-1.9333179;8.273164;
0;04:04:03:802;-1.447295;0.7254431;
0;04:04:03:812;0.32800564;4.44723;
0;04:04:03:822;4.3634324;-1.3826514;
0;04:04:03:832;-9.009381;0.6428431;
0;04:04:03:843;4.143166;12.269087;
0;04:04:03:853;-4.5741224;0.5518635;
0;04:04:03:864;-3.0358477;5.8442464;
0;04:04:03:875;-5.365406;3.9193082;
0;04:04:03:886;-6.289568;4.9464207;
0;04:04:03:897;4.945224;3.8295257;
0;04:04:03:908;0.17836803;2.480393;
0;04:04:03:917;4.2437224;7.5884223;
0;04:04:03:928;5.2684407;3.2070332;
0;04:04:03:938;-4.4843397;0.36990416;
0;04:04:03:949;-1.8555063;-0.9636662;
0;04:04:03:959;-4.8973393;0.7433996;
0;04:04:03:969;12.381614;7.007828;
0;04:04:03:980;8.000225;2.8407204;
0;04:04:03:991;3.1256304;5.9064956;
0;04:04:04:001;-9.591172;3.3291376;
0;04:04:04:011;-6.634333;-2.1859062;
0;04:04:04:022;0.34835634;1.661576;
0;04:04:04:033;-1.0307038;4.1575313;
0;04:04:04:043;5.3282957;3.809175;
0;04:04:04:054;6.420052;2.7868507;
0;04:04:04:064;-3.7816415;7.7667904;
0;04:04:04:074;-5.457583;1.0426749;
0;04:04:04:084;-3.7828386;-1.0067618;
0;04:04:04:095;0.427365;-3.5051112;
0;04:04:04:105;-5.2301335;4.2305546;
0;04:04:04:116;-2.5270798;0.5650316;
0;04:04:04:127;0.07182605;3.0550013;
0;04:04:04:138;2.6767175;5.29358;
0;04:04:04:148;-5.7281275;5.434838;
0;04:04:04:160;-2.8431146;2.574964;
0;04:04:04:170;3.5793316;0.50996494;
0;04:04:04:180;2.2732944;-2.7018566;
0;04:04:04:191;-4.677073;-1.4915876;
0;04:04:04:201;-9.61272;0.91219085;
0;04:04:04:212;-2.7976246;3.3842041;
0;04:04:04:222;2.337938;5.967548;
0;04:04:04:232;-1.0929531;4.915296;
0;04:04:04:242;10.821792;5.1966147;
0;04:04:04:252;-1.9859903;-3.1172507;
0;04:04:04:262;-9.421184;-1.1683705;
0;04:04:04:272;0.5805939;-0.45130703;
0;04:04:04:282;-1.1540052;3.5817258;
0;04:04:04:292;-1.8674773;4.120421;
0;04:04:04:303;-16.821661;-1.8555063;
0;04:04:04:313;5.116409;-0.6596026;
0;04:04:04:324;-7.547721;-4.7919946;
0;04:04:04:333;11.779472;5.639542;
0;04:04:04:344;-6.757634;-5.2516813;
0;04:04:04:355;-3.5338416;6.3123126;
0;04:04:04:366;4.581305;-1.6747441;
0;04:04:04:376;8.7951;0.19393034;
0;04:04:04:387;-0.9900024;-1.5514427;
0;04:04:04:397;-0.29209262;8.8777;
0;04:04:04:408;-6.885724;-2.2242134;
0;04:04:04:418;-9.198523;0.19991584;
0;04:04:04:428;0.9780314;0.85473;
0;04:04:04:438;3.0418332;2.1619642;
0;04:04:04:449;0.053869538;4.048595;
0;04:04:04:459;-7.2867527;-3.0142999;
0;04:04:04:470;1.3946224;3.0178912;
0;04:04:04:480;-3.4763808;1.4891934;
0;04:04:04:490;-1.2354081;-1.6424223;
0;04:04:04:500;-4.211401;-1.4389153;
0;04:04:04:510;6.093243;-0.8702923;
0;04:04:04:520;-6.233304;3.0083144;
0;04:04:04:530;-3.3925838;2.1332338;
0;04:04:04:540;-6.9144545;-1.5167267;
0;04:04:04:550;-1.9081788;5.104438;
0;04:04:04:561;-2.5629928;-2.1619642;
0;04:04:04:571;5.509058;4.5034933;
0;04:04:04:581;-5.483919;-4.4603977;
0;04:04:04:592;-2.220622;-2.4995465;
0;04:04:04:602;-7.753622;-2.3989902;
0;04:04:04:613;1.0175357;0.39504328;
0;04:04:04:623;6.5984197;9.736021;
0;04:04:04:634;-11.329363;-4.775235;
0;04:04:04:645;6.254852;4.545392;
0;04:04:04:655;-5.2959743;-5.342661;
0;04:04:04:666;-2.099715;5.401319;
0;04:04:04:677;-3.8726213;3.3255463;
0;04:04:04:686;-4.733337;7.9032598;
0;04:04:04:697;-7.5561004;1.8710686;
0;04:04:04:707;3.2225955;-3.6870706;
0;04:04:04:718;9.127894;-5.746084;
0;04:04:04:728;4.7177744;5.8825536;
0;04:04:04:738;-5.45878;-0.93373865;
0;04:04:04:748;3.8043866;2.2816741;
0;04:04:04:759;1.1420342;5.368997;
0;04:04:04:769;1.5933412;1.1480197;
0;04:04:04:780;-2.3894134;1.2006922;
0;04:04:04:790;-2.4181437;-0.79846627;
0;04:04:04:800;-5.5126495;-3.928885;
0;04:04:04:811;3.8067808;-1.0630256;
0;04:04:04:822;2.1930888;4.271256;
0;04:04:04:832;-4.187459;-2.4001873;
0;04:04:04:842;0.046686932;8.556877;
0;04:04:04:853;4.307169;-0.90141696;
0;04:04:04:864;5.4168816;5.864597;
0;04:04:04:875;12.393585;-0.50637364;
0;04:04:04:885;-9.25359;-4.4568067;
0;04:04:04:896;1.0199299;1.9488802;
0;04:04:04:905;-7.3059063;-2.790442;
0;04:04:04:916;-2.6431987;-5.6000376;
0;04:04:04:926;0.760159;-8.277952;
0;04:04:04:937;-24.982298;-10.324995;
0;04:04:04:948;-4.542998;-8.177396;
0;04:04:04:958;11.9746;0.034715924;
0;04:04:04:969;-2.743755;25.267208;
0;04:04:04:979;-1.6771383;-3.2549171;
0;04:04:04:990;-7.7320743;5.756858;
0;04:04:05:001;14.91468;0.010773907;
0;04:04:05:011;1.1348516;-15.371972;
0;04:04:05:022;-8.602366;-5.9292407;
0;04:04:05:032;-10.856507;2.480393;
0;04:04:05:043;-1.8471266;2.6384103;
0;04:04:05:053;6.3099184;3.6176388;
0;04:04:05:063;-7.463924;-1.4628572;
0;04:04:05:074;-0.6332663;3.9803603;
0;04:04:05:084;-12.235568;-9.2308445;
0;04:04:05:095;2.2720973;1.1312603;
0;04:04:05:106;18.813637;-16.14051;
0;04:04:05:116;-9.267955;-13.836092;
0;04:04:05:127;-16.934189;6.235698;
0;04:04:05:137;-6.9599442;-2.6312277;
0;04:04:05:148;3.4009635;2.2517467;
0;04:04:05:159;6.9360023;4.9200845;
0;04:04:05:170;2.0566192;2.6144683;
0;04:04:05:180;14.535198;0.2657564;
0;04:04:05:190;-5.85502;-1.6448165;
0;04:04:05:200;-4.1706996;3.1771057;
0;04:04:05:210;-4.8937483;-1.2294226;
0;04:04:05:221;-2.2960393;-4.3119574;
0;04:04:05:232;6.567295;-1.7836803;
0;04:04:05:241;-18.828003;0.4429273;
0;04:04:05:251;13.441049;3.6164417;
0;04:04:05:261;8.309077;-4.4101195;
0;04:04:05:271;9.0476885;-7.7224975;
0;04:04:05:282;6.327875;2.5701754;
0;04:04:05:293;-11.71004;-0.8283938;
0;04:04:05:304;-6.667852;27.247213;
0;04:04:05:313;21.410149;2.099715;
0;04:04:05:323;4.8123455;5.425261;
0;04:04:05:333;2.9388826;8.415619;
0;04:04:05:343;5.201403;2.6671407;
0;04:04:05:354;-1.423353;11.467029;
0;04:04:05:363;-6.6606693;-4.945224;
0;04:04:05:374;-16.745047;1.8255788;
0;04:04:05:384;1.4293385;-6.2644286;
0;04:04:05:395;2.7365725;3.064578;
0;04:04:05:405;-2.870648;-3.383007;
0;04:04:05:416;-5.8442464;-13.350069;
0;04:04:05:426;2.0231004;-9.661801;
0;04:04:05:436;-17.187975;-11.230003;
0;04:04:05:446;2.1284454;-12.569559;
0;04:04:05:456;20.12087;-12.674904;
0;04:04:05:466;-5.5641246;-4.035427;
0;04:04:05:477;-19.412188;-8.380903;
0;04:04:05:488;-6.199785;27.94153;
0;04:04:05:499;-0.34596214;-12.898762;
0;04:04:05:510;17.280151;0.2681506;
0;04:04:05:521;11.452663;13.6649065;
0;04:04:05:532;-2.135628;9.01776;
0;04:04:05:541;-1.3311762;3.120842;
0;04:04:05:551;-10.441113;4.0892963;
0;04:04:05:561;-18.351557;1.7046716;
0;04:04:05:572;-9.326612;-0.9876082;
0;04:04:05:582;11.623849;-3.608062;
0;04:04:05:593;-14.454992;-8.632295;
0;04:04:05:603;-4.3382936;1.7753005;
0;04:04:05:614;-7.297527;-5.7245364;
0;04:04:05:625;-15.470135;-9.234436;
0;04:04:05:636;-12.759898;0.93014735;
0;04:04:05:647;-16.33444;-14.369999;
0;04:04:05:657;-11.881226;-8.738836;
0;04:04:05:667;1.2617443;3.6834793;
0;04:04:05:677;-0.9576807;-9.975441;
0;04:04:05:689;-24.037785;-11.107899;
0;04:04:05:700;9.072827;2.906561;
0;04:04:05:709;3.8857894;-5.0996494;
0;04:04:05:720;4.594473;-0.37469256;
0;04:04:05:730;-17.01559;0.641646;
0;04:04:05:740;-27.626694;-5.427655;
0;04:04:05:751;-23.177069;-1.0450691;
0;04:04:05:761;-23.477541;-3.6846764;
0;04:04:05:772;-24.715343;-1.2797008;
0;04:04:05:782;-0.130484;-6.245275;
0;04:04:05:793;1.7465701;-4.5358152;
0;04:04:05:803;-0.39384618;-3.1854854;
0;04:04:05:813;-10.5440645;3.560178;
0;04:04:05:823;-9.7563715;-3.6619315;
0;04:04:05:833;-4.213795;2.5354595;
0;04:04:05:844;-26.934769;-0.47884035;
0;04:04:05:854;-7.809886;-6.7229185;
0;04:04:05:865;-11.107899;-4.9919105;
0;04:04:05:875;1.9069817;4.507085;
0;04:04:05:885;-18.774132;-3.6834793;
0;04:04:05:895;-17.3424;-5.8741736;
0;04:04:05:905;-10.065224;-0.1340753;
0;04:04:05:915;-7.690176;-6.2021794;
0;04:04:05:925;-10.840945;9.441534;
0;04:04:05:936;14.956578;-0.05626374;
0;04:04:05:946;-20.634428;-9.931149;
0;04:04:05:956;-22.84188;-3.465607;
0;04:04:05:967;-13.770251;-4.3406878;
0;04:04:05:977;-5.9064956;-1.7681179;
0;04:04:05:987;-4.987122;1.401805;
0;04:04:05:997;-1.1707647;-7.1766195;
0;04:04:06:008;-16.842012;5.90889;
0;04:04:06:019;-3.904943;-6.303933;
0;04:04:06:029;-14.131776;-0.21308395;
0;04:04:06:040;-1.827973;3.1028855;
0;04:04:06:050;-16.587029;-3.0550013;
0;04:04:06:061;7.5201874;-0.022744916;
0;04:04:06:071;-13.115437;-1.863886;
0;04:04:06:082;0.6536171;-1.3862427;
0;04:04:06:092;-12.919112;2.2230163;
0;04:04:06:102;2.7485435;-1.5478514;
0;04:04:06:113;-18.43655;0.49799395;
0;04:04:06:123;-7.0461354;1.127669;
0;04:04:06:134;-5.535394;-3.1184478;
0;04:04:06:144;-7.6841903;5.5461683;
0;04:04:06:154;-4.5561657;-0.10414778;
0;04:04:06:164;15.180436;3.4368765;
0;04:04:06:175;-14.901511;1.1300632;
0;04:04:06:186;-25.524584;0.415394;
0;04:04:06:196;-14.615404;1.2246342;
0;04:04:06:207;-19.99278;0.45010993;
0;04:04:06:217;-20.28248;-1.3000516;
0;04:04:06:228;0.022744916;-1.6843209;
0;04:04:06:239;-13.437457;2.825158;
0;04:04:06:249;9.831789;2.0458453;
0;04:04:06:260;-3.6703112;-1.6639702;
0;04:04:06:270;-5.019444;-3.0753522;
0;04:04:06:281;-9.882068;1.8926164;
0;04:04:06:292;-1.555034;-2.1679497;
0;04:04:06:303;10.625467;-5.7065797;
0;04:04:06:313;-6.0728927;-0.35434186;
0;04:04:06:324;-14.65012;-1.283292;
0;04:04:06:334;-18.137276;-2.4420857;
0;04:04:06:344;-0.60453594;1.0869676;
0;04:04:06:354;0.32321724;5.866991;
0;04:04:06:364;-0.40102878;11.810597;
0;04:04:06:375;-0.7553706;7.225701;
0;04:04:06:385;-5.1846437;1.6089035;
0;04:04:06:395;-1.6699557;9.224859;
0;04:04:06:405;-2.304419;4.819528;
0;04:04:06:415;-1.3359646;1.376666;
0;04:04:06:425;-8.400057;7.419631;
0;04:04:06:435;-2.9041667;4.1635165;
0;04:04:06:446;1.1647792;-4.080917;
0;04:04:06:456;4.6220064;1.3275849;
0;04:04:06:467;0.78410107;-0.7302315;
0;04:04:06:477;-1.2904748;4.7907977;
0;04:04:06:488;-3.5075054;5.6766524;
0;04:04:06:499;1.3563153;3.9863458;
0;04:04:06:509;-3.2944214;7.005434;
0;04:04:06:520;2.007538;4.8961425;
0;04:04:06:530;-5.2385135;4.3263226;
0;04:04:06:541;-6.9240313;-7.0724716;
0;04:04:06:552;7.703344;1.8471266;
0;04:04:06:562;3.063381;1.448492;
0;04:04:06:572;1.8938135;1.7369933;
0;04:04:06:582;2.6396074;5.4204726;
0;04:04:06:592;-4.334702;4.3119574;
0;04:04:06:603;1.6448165;3.145981;
0;04:04:06:612;4.7070007;5.2780175;
0;04:04:06:623;2.802413;-2.0649989;
0;04:04:06:633;-0.545878;-3.7840357;
0;04:04:06:644;-0.545878;-3.7840357;
0;04:04:06:654;3.0298622;-2.2158337;
0;04:04:06:664;3.691859;-5.6431336;
0;04:04:06:674;-4.1000705;4.865018;
0;04:04:06:685;-2.767697;1.1875241;
0;04:04:06:695;1.1791444;3.9827545;
0;04:04:06:705;1.7525556;-4.296395;
0;04:04:06:715;1.0187328;-2.268506;
0;04:04:06:725;0.9660604;-0.6799533;
0;04:04:06:736;-5.494693;-4.259285;
0;04:04:06:746;7.4375877;1.8303672;
0;04:04:06:756;-1.1791444;-2.8646624;
0;04:04:06:767;-0.5710171;0.8583213;
0;04:04:06:776;-4.578911;0.35553896;
0;04:04:06:787;-8.39048;0.093373865;
0;04:04:06:797;4.5980644;0.81163436;
0;04:04:06:808;5.2061915;-2.9053638;
0;04:04:06:818;-2.6288335;2.6563668;
0;04:04:06:828;1.8076223;-0.80924016;
0;04:04:06:838;-1.9859903;-0.89662856;
0;04:04:06:849;-2.5510218;1.0606314;
0;04:04:06:860;-0.029927522;-2.5617957;
0;04:04:06:871;3.0693667;0.50637364;
0;04:04:06:882;-0.92296475;-0.16280572;
0;04:04:06:892;-6.8809357;-0.5446809;
0;04:04:06:902;0.51116204;-1.411382;
0;04:04:06:912;10.617087;0.22385786;
0;04:04:06:923;3.515885;3.1627405;
0;04:04:06:933;3.0609868;-3.3842041;
0;04:04:06:944;-2.3235726;0.32561144;
0;04:04:06:955;1.067814;-0.2741361;
0;04:04:06:965;0.7218518;-3.0298622;
0;04:04:06:976;5.759252;1.8914193;
0;04:04:06:986;3.0214825;3.6355953;
0;04:04:06:996;-3.2118216;1.2258313;
0;04:04:07:007;-0.6596026;-3.843891;
0;04:04:07:017;6.7624226;-1.2306197;
0;04:04:07:027;3.5326445;-2.1140802;
0;04:04:07:038;3.074155;2.813187;
0;04:04:07:047;-3.726575;-3.6044707;
0;04:04:07:058;4.772841;-1.7753005;
0;04:04:07:068;8.325836;-5.353435;
0;04:04:07:078;5.9388175;3.264494;
0;04:04:07:089;4.045004;-4.689044;
0;04:04:07:099;-0.8487445;-1.0881647;
0;04:04:07:109;-9.309854;-3.6164417;
0;04:04:07:120;0.6536171;-2.3642743;
0;04:04:07:131;3.3925838;-1.4401124;
0;04:04:07:142;2.8909986;1.401805;
0;04:04:07:152;4.947618;4.308366;
0;04:04:07:163;-0.9995792;-5.321113;
0;04:04:07:173;5.118803;-1.9069817;
0;04:04:07:184;0.58657944;-3.4763808;
0;04:04:07:194;-0.78769237;0.34117374;
0;04:04:07:205;-2.4911668;2.4193408;
0;04:04:07:217;2.657564;1.3730747;
0;04:04:07:228;-0.03232172;-1.7812861;
0;04:04:07:239;1.3754689;2.9400797;
0;04:04:07:249;3.526659;-4.97156;
0;04:04:07:259;-1.8459295;-0.33518824;
0;04:04:07:270;-4.3418846;-1.7417817;
0;04:04:07:280;-3.2345665;2.408567;
0;04:04:07:290;-5.591658;0.8619126;
0;04:04:07:301;-1.2868834;-2.3558946;
0;04:04:07:311;0.8643068;-2.5198972;
0;04:04:07:322;-0.50158525;2.7736826;
0;04:04:07:332;-1.0163386;0.130484;
0;04:04:07:343;-4.224569;0.35793316;
0;04:04:07:353;1.7884687;-0.17118542;
0;04:04:07:363;3.9013517;-2.895787;
0;04:04:07:374;-2.6372132;-1.4269443;
0;04:04:07:384;-1.8088194;1.5753847;
0;04:04:07:395;0.9983821;-2.3175871;
0;04:04:07:404;8.851364;0.08379706;
0;04:04:07:415;-12.133814;-1.1659763;
0;04:04:07:426;-6.55293;-6.955156;
0;04:04:07:436;2.1823149;1.2617443;
0;04:04:07:447;5.445612;-4.9548006;
0;04:04:07:457;-0.31244332;-1.3251907;
0;04:04:07:467;3.5865142;0.7110779;
0;04:04:07:477;-0.36870706;5.4539914;
0;04:04:07:488;-2.1045034;7.2819643;
0;04:04:07:499;1.033098;-1.9800048;
0;04:04:07:510;9.217676;0.60453594;
0;04:04:07:520;3.2573113;-0.80804306;
0;04:04:07:531;-1.7405846;-10.040085;
0;04:04:07:541;-9.846154;-1.6196774;
0;04:04:07:551;14.954184;-1.8064252;
0;04:04:07:561;-7.026982;-7.1550717;
0;04:04:07:571;-7.097611;1.8650831;
0;04:04:07:582;5.6766524;8.582016;
0;04:04:07:592;6.2979474;-2.9735985;
0;04:04:07:602;-3.1483753;-4.426879;
0;04:04:07:612;-2.9113493;0.19871874;
0;04:04:07:622;6.9048777;-4.8494554;
0;04:04:07:632;0.9911995;-5.8693852;
0;04:04:07:642;3.0142999;0.973243;
0;04:04:07:652;-6.3578024;3.0609868;
0;04:04:07:662;3.846285;4.1718965;
0;04:04:07:672;-1.827973;5.294777;
0;04:04:07:683;-7.195773;1.5454572;
0;04:04:07:694;0.50517654;1.5729905;
0;04:04:07:704;-5.2756233;-10.461464;
0;04:04:07:715;5.7281275;-3.4572272;
0;04:04:07:725;-2.883816;0.075417355;
0;04:04:07:736;0.06344634;0.7529764;
0;04:04:07:746;-6.851008;5.6766524;
0;04:04:07:757;-2.825158;6.381745;
0;04:04:07:767;-1.6041151;3.8881836;
0;04:04:07:778;1.839944;-3.3087866;
0;04:04:07:788;-1.4903905;-2.8766334;
0;04:04:07:798;1.4748282;-2.1308396;
0;04:04:07:808;3.3638535;5.5844755;
0;04:04:07:819;-4.3155484;-3.064578;
0;04:04:07:830;9.363723;-3.9228995;
0;04:04:07:841;-5.8334723;-1.4293385;
0;04:04:07:851;-13.6732855;-8.268375;
0;04:04:07:862;-3.1411927;-2.7629087;
0;04:04:07:872;0.878672;1.4065934;
0;04:04:07:883;-2.4983494;1.1599907;
0;04:04:07:893;-4.973954;-1.7645266;
0;04:04:07:903;2.8802247;-1.6519991;
0;04:04:07:914;-3.4584243;0.08619126;
0;04:04:07:924;-0.4189853;-3.357868;
0;04:04:07:935;3.5003228;3.1962593;
0;04:04:07:946;7.1550717;-1.9740193;
0;04:04:07:955;-3.693056;0.40940848;
0;04:04:07:966;0.5805939;0.7553706;
0;04:04:07:977;3.417723;0.9696517;
0;04:04:07:987;-0.5434838;0.5758055;
0;04:04:07:997;1.7956513;2.505532;
0;04:04:08:008;3.3159695;-3.8881836;
0;04:04:08:018;-1.8830396;1.7836803;
0;04:04:08:028;4.0857053;-2.7281928;
0;04:04:08:039;-2.552219;-0.17597382;
0;04:04:08:051;4.5860934;-2.72939;
0;04:04:08:061;-6.133945;0.4249708;
0;04:04:08:072;-1.7250223;4.5777135;
0;04:04:08:082;-4.122815;-5.1475334;
0;04:04:08:092;4.3179426;0.36391866;
0;04:04:08:103;-1.8052281;-1.839944;
0;04:04:08:113;-2.7150247;-2.6072857;
0;04:04:08:124;9.174581;1.5382746;
0;04:04:08:135;-6.256049;-1.4508862;
0;04:04:08:145;-2.6312277;-1.0510546;
0;04:04:08:156;-2.3080103;1.0127473;
0;04:04:08:166;4.0581717;0.94570965;
0;04:04:08:177;1.0941502;-1.9440918;
0;04:04:08:187;1.2808979;-3.3770216;
0;04:04:08:198;1.9141643;0.8810662;
0;04:04:08:209;-2.0685902;-1.6831238;
0;04:04:08:220;1.9620483;0.4261679;
0;04:04:08:230;-3.9336734;0.4405331;
0;04:04:08:241;0.78290397;0.5542577;
0;04:04:08:250;5.961562;-3.241749;
0;04:04:08:261;-4.0653543;0.51475334;
0;04:04:08:271;-0.29927522;-1.0594343;
0;04:04:08:282;0.47285482;1.8602947;
0;04:04:08:292;-3.750517;1.1420342;
0;04:04:08:303;-7.667431;-2.9496565;
0;04:04:08:313;2.1200657;-0.10175357;
0;04:04:08:325;2.469619;-2.1871033;
0;04:04:08:335;5.7544637;3.1292217;
0;04:04:08:346;-0.19752164;0.8295909;
0;04:04:08:355;1.2593501;1.2725182;
0;04:04:08:366;8.182184;-1.6005238;
0;04:04:08:376;-0.557849;-1.0642227;
0;04:04:08:387;3.3291376;-2.6479871;
0;04:04:08:397;-1.1013328;0.5470751;
0;04:04:08:408;-0.5422867;-1.958457;
0;04:04:08:418;-1.3479356;0.62847793;
0;04:04:08:429;7.3442135;0.10175357;
0;04:04:08:439;-0.6428431;-0.010773907;
0;04:04:08:450;1.4449008;-1.7848774;
0;04:04:08:461;3.6140475;0.50757074;
0;04:04:08:471;4.933253;-1.1121067;
0;04:04:08:482;2.8107927;-1.2306197;
0;04:04:08:492;2.134431;-1.1994951;
0;04:04:08:503;6.6187706;0.3854665;
0;04:04:08:513;-3.108871;-0.8559271;
0;04:04:08:524;-2.9221232;-1.7896658;
0;04:04:08:534;-0.51834464;-1.4425066;
0;04:04:08:544;1.9321208;-1.3036429;
0;04:04:08:555;9.57561;-0.3172317;
0;04:04:08:565;1.7669208;-0.5518635;
0;04:04:08:575;-1.7310078;-1.6711528;
0;04:04:08:585;0.7254431;-2.5929205;
0;04:04:08:595;2.552219;-1.6807296;
0;04:04:08:605;5.6982;1.0642227;
0;04:04:08:616;-0.7781156;0.6931214;
0;04:04:08:626;-8.054094;-3.6583402;
0;04:04:08:637;-0.48243165;-2.2373815;
0;04:04:08:647;-3.2106245;-2.791639;
0;04:04:08:658;0.45848963;-1.508347;
0;04:04:08:668;4.8362875;3.4141316;
0;04:04:08:678;-0.78649527;-3.7433343;
0;04:04:08:689;-0.59855044;-2.5198972;
0;04:04:08:700;1.5023615;-2.291251;
0;04:04:08:711;3.6391866;-2.2457612;
0;04:04:08:721;3.122039;0.60932434;
0;04:04:08:731;2.183512;2.0530279;
0;04:04:08:742;0.0;-0.47285482;
0;04:04:08:752;-5.639542;-1.1899183;
0;04:04:08:763;-0.11611878;-0.107739076;
0;04:04:08:773;4.4999022;-0.9576807;
0;04:04:08:784;-0.80445176;-2.7341783;
0;04:04:08:794;-0.12090719;0.272939;
0;04:04:08:804;0.6811504;-2.930503;
0;04:04:08:814;-0.06344634;0.079008654;
0;04:04:08:825;6.8103065;-1.4939818;
0;04:04:08:836;3.7684734;-2.2409728;
0;04:04:08:845;1.3156139;0.061052144;
0;04:04:08:856;1.5490485;-1.6089035;
0;04:04:08:867;4.6100354;0.9935937;
0;04:04:08:877;1.2677298;-0.5279215;
0;04:04:08:887;-0.40102878;0.6823475;
0;04:04:08:898;-0.47046062;-4.8386817;
0;04:04:08:907;1.3802572;-2.0015526;
0;04:04:08:918;-3.4141316;0.8595184;
0;04:04:08:928;2.268506;-1.0594343;
0;04:04:08:939;-0.39624038;1.5717934;
0;04:04:08:949;0.8475474;0.8583213;
0;04:04:08:959;1.174356;-2.0697873;
0;04:04:08:970;-0.18195933;-3.2237926;
0;04:04:08:981;1.7741034;-1.8507179;
0;04:04:08:991;2.516306;1.4030021;
0;04:04:09:001;-3.2321723;-1.4628572;
0;04:04:09:011;-0.5363012;0.46088383;
0;04:04:09:022;-1.043872;2.337938;
0;04:04:09:033;5.849035;-3.976769;
0;04:04:09:042;-0.5410896;-2.2505496;
0;04:04:09:053;2.3762453;-0.91817635;
0;04:04:09:063;-0.9600749;0.50397944;
0;04:04:09:073;0.19632454;0.33877954;
0;04:04:09:084;0.9828198;-1.9656396;
0;04:04:09:094;-1.210269;-1.9129672;
0;04:04:09:104;-2.4732103;-1.9979613;
0;04:04:09:115;-1.3706805;0.94092125;
0;04:04:09:126;1.6400281;1.0319009;
0;04:04:09:138;1.5490485;0.5638345;
0;04:04:09:148;-1.0510546;-3.0669725;
0;04:04:09:159;1.7118542;-1.8471266;
0;04:04:09:169;1.9153614;-2.7868507;
0;04:04:09:179;0.47644615;-1.1647792;
0;04:04:09:189;-0.5530606;1.4987702;
0;04:04:09:200;0.29807812;-1.4951789;
0;04:04:09:211;-1.8124107;-2.0626047;
0;04:04:09:221;-2.492364;-0.51116204;
0;04:04:09:232;-1.650802;0.34955344;
0;04:04:09:242;2.2637177;-0.37708676;
0;04:04:09:252;1.270124;-2.1859062;
0;04:04:09:263;-2.6396074;-0.8583213;
0;04:04:09:273;-2.0326772;-0.0035913025;
0;04:04:09:284;-1.9189527;0.14844051;
0;04:04:09:295;0.47524905;-0.40821138;
0;04:04:09:306;-1.3718776;-0.94451255;
0;04:04:09:317;0.8367735;-0.16639702;
0;04:04:09:328;2.492364;0.25977087;
0;04:04:09:338;-0.1340753;-1.2737153;
0;04:04:09:348;-0.6907272;-0.93972415;
0;04:04:09:358;-0.85473;0.33039984;
0;04:04:09:369;-0.63087213;-0.076614454;
0;04:04:09:380;1.5490485;-1.0570401;
0;04:04:09:391;-0.16519992;-0.06464344;
0;04:04:09:401;-1.2425907;0.6979098;
0;04:04:09:412;2.4899697;0.34476504;
0;04:04:09:422;1.0163386;-0.4225766;
0;04:04:09:433;-1.055843;-0.93254155;
0;04:04:09:443;-0.6500258;-0.93852705;
0;04:04:09:454;-1.0390835;-0.25977087;
0;04:04:09:464;1.388637;0.78170687;
0;04:04:09:474;1.3335704;0.90740246;
0;04:04:09:485;-0.7410054;-1.1300632;
0;04:04:09:495;0.35194764;-1.436521;
0;04:04:09:505;2.1152773;-0.8750807;
0;04:04:09:515;0.6619968;-0.8379706;
0;04:04:09:526;-1.3730747;-0.48243165;
0;04:04:09:536;-2.0290859;0.23822308;
0;04:04:09:547;0.9684546;0.29807812;
0;04:04:09:557;-0.33758244;0.0023942017;
0;04:04:09:567;-0.31603462;-0.521936;
0;04:04:09:578;0.17238252;-2.5210943;
0;04:04:09:588;2.2026656;-1.2174516;
0;04:04:09:599;1.4640543;1.0690111;
0;04:04:09:609;0.56982;1.1779473;
0;04:04:09:620;0.9780314;0.5303157;
0;04:04:09:630;-1.3323733;-1.7729063;
0;04:04:09:641;-0.095768064;-0.7110779;
0;04:04:09:652;-0.11971009;-0.712275;
0;04:04:09:662;0.35194764;-0.8858546;
0;04:04:09:673;-0.03232172;-0.6931214;
0;04:04:09:684;0.51475334;0.61650693;
0;04:04:09:695;0.80564886;0.17118542;
0;04:04:09:705;0.039504327;-0.1376666;
0;04:04:09:716;0.94211835;-1.6771383;
0;04:04:09:726;-0.005985504;-0.770933;
0;04:04:09:737;0.4429273;-0.5686229;
0;04:04:09:748;-0.62728083;0.59136784;
0;04:04:09:760;-0.06584055;-0.6572084;
0;04:04:09:771;0.5422867;0.44651863;
0;04:04:09:782;1.578976;1.3742718;
0;04:04:09:793;-0.1340753;-2.1523874;
0;04:04:09:804;0.38187516;-0.6751649;
0;04:04:09:814;1.6723499;1.1168951;
0;04:04:09:825;0.18555063;-2.099715;
0;04:04:09:835;0.10654198;-0.8295909;
0;04:04:09:846;0.48362875;-0.1316811;
0;04:04:09:856;-1.0989386;-3.4512417;
0;04:04:09:867;0.34715924;-1.0151415;
0;04:04:09:877;-0.32561144;-2.4839842;
0;04:04:09:888;-0.88944596;-0.050278235;
0;04:04:09:898;0.89423436;0.47884035;
0;04:04:09:908;0.47285482;0.40342298;
0;04:04:09:918;0.5722142;-0.12808979;
0;04:04:09:929;0.2908955;-0.6943185;
0;04:04:09:939;-0.07062895;-0.1328782;
0;04:04:09:949;0.24181437;0.3184288;
0;04:04:09:960;-0.051475335;0.21068975;
0;04:04:09:970;0.016759412;-0.25857377;
0;04:04:09:980;0.1340753;-0.22146365;
0;04:04:09:991;0.24779987;0.12569559;
0;04:04:10:002;0.32561144;0.3172317;
0;04:04:10:012;0.22026655;-0.05267244;
0;04:04:10:023;0.12330139;0.08619126;
0;04:04:10:033;0.21428105;0.31364042;
0;04:04:10:043;0.23223756;0.3878607;
0;04:04:10:053;0.17956513;0.30645782;
0;04:04:10:064;0.21906945;0.24779987;
0;04:04:10:074;0.20231004;0.29209262;
0;04:04:10:084;0.19991584;0.35913026;
0;04:04:10:095;0.25617957;0.37828386;
0;04:04:10:105;0.30047232;0.45968673;
0;04:04:10:115;0.30286652;0.37828386;
0;04:04:10:125;0.14604631;0.48003745;
0;04:04:10:135;0.17956513;0.51834464;
0;04:04:10:145;0.15562311;0.49081135;
0;04:04:10:155;0.16160862;0.5279215;
0;04:04:10:166;0.23104046;0.50278234;
0;04:04:10:175;0.25258827;0.59735334;
0;04:04:10:186;0.2765303;0.61650693;
0;04:04:10:197;0.30166942;0.6871359;
0;04:04:10:207;0.4333505;0.5758055;
0;04:04:10:218;0.21667525;0.46567222;
0;04:04:10:228;-0.35793316;0.5470751;
0;04:04:10:240;-0.39624038;0.22625206;
0;04:04:10:251;0.023942016;0.47285482;
0;04:04:10:261;0.46327803;0.62009823;
0;04:04:10:272;0.59615624;0.6679823;
0;04:04:10:282;0.32800564;0.439336;
0;04:04:10:293;0.4261679;0.29448682;
0;04:04:10:303;0.22984336;0.32441434;
0;04:04:10:313;-0.0023942017;0.33997664;
0;04:04:10:324;-0.107739076;0.22026655;
0;04:04:10:334;0.051475335;0.20709845;
0;04:04:10:345;0.19632454;0.2633622;
0;04:04:10:356;0.2705448;0.33877954;
0;04:04:10:366;0.36631286;0.30286652;
0;04:04:10:376;0.2741361;0.22505496;
0;04:04:10:386;0.22385786;0.20350714;
0;04:04:10:397;0.12928689;0.19632454;
0;04:04:10:407;0.10295067;0.18674773;
0;04:04:10:418;0.08738836;0.18435353;
0;04:04:10:428;0.16160862;0.20829555;
0;04:04:10:438;0.2621651;0.23702596;
0;04:04:10:448;0.30645782;0.23822308;
0;04:04:10:458;0.24540567;0.16759412;
0;04:04:10:469;0.23942018;0.19393034;
0;04:04:10:479;0.1388637;0.19871874;
0;04:04:10:489;0.15562311;0.19512744;
0;04:04:10:500;0.18555063;0.20111294;
0;04:04:10:510;0.19033903;0.21906945;
0;04:04:10:520;0.21428105;0.22505496;
0;04:04:10:530;0.22984336;0.23463176;
0;04:04:10:540;0.21428105;0.22146365;
0;04:04:10:550;0.20590134;0.22146365;
0;04:04:10:560;0.20350714;0.2765303;
0;04:04:10:570;0.24899697;0.30885202;
0;04:04:10:581;0.22625206;0.24061728;
0;04:04:10:591;0.19153613;1.0654198;
0;04:04:10:602;0.18794483;1.9596541;
0;04:04:10:612;1.0570401;5.505467;
0;04:04:10:623;0.81283146;0.01316811;
0;04:04:10:634;-0.039504327;0.6739678;
0;04:04:10:644;-0.19393034;0.46447513;
0;04:04:10:655;-0.1412579;-0.5506664;
0;04:04:10:666;0.39504328;0.60214174;
0;04:04:10:678;0.33997664;0.8690952;
0;04:04:10:688;0.06344634;-0.62728083;
0;04:04:10:698;0.06464344;-0.29927522;
0;04:04:10:709;0.5315128;-0.47165772;
0;04:04:10:719;-0.31364042;-0.4249708;
0;04:04:10:730;0.2633622;0.0;
0;04:04:10:741;0.22385786;-0.1316811;
0;04:04:10:751;-0.073023155;-0.3184288;
0;04:04:10:762;0.47285482;-0.15801731;
0;04:04:10:773;0.24899697;-0.09696517;
0;04:04:10:783;0.049081136;-0.022744916;
0;04:04:10:793;0.130484;-0.34476504;
0;04:04:10:804;-0.0023942017;-0.2777274;
0;04:04:10:815;0.04309563;-0.16160862;
0;04:04:10:826;0.12090719;-0.1400608;
0;04:04:10:836;0.18315643;-0.15442601;
0;04:04:10:846;0.1388637;-0.107739076;
0;04:04:10:857;0.17717093;-0.0047884034;
0;04:04:10:868;0.11731588;0.007182605;
0;04:04:10:878;0.11851298;0.0047884034;
0;04:04:10:888;0.15442601;0.050278235;
0;04:04:10:899;0.18076223;0.11133038;
0;04:04:10:909;0.07062895;0.08020575;
0;04:04:10:919;0.4321534;0.37948096;
0;04:04:10:931;1.804031;4.429273;
0;04:04:10:940;0.46806642;0.78769237;
0;04:04:10:951;0.025139118;2.1440077;
0;04:04:10:961;1.0235212;1.2605472;
0;04:04:10:971;-0.7649474;0.22625206;
0;04:04:10:982;0.19752164;1.0139444;
0;04:04:10:993;0.130484;0.14844051;
0;04:04:11:003;-0.1388637;-0.35673606;
0;04:04:11:014;1.0582372;3.3063924;
0;04:04:11:024;-0.30885202;0.50158525;
0;04:04:11:035;-0.17717093;0.8355764;
0;04:04:11:046;0.12330139;-0.45370123;
0;04:04:11:057;-0.107739076;-0.34955344;
0;04:04:11:067;-0.009576807;-0.027533319;
0;04:04:11:077;0.7206547;2.5019407;
0;04:04:11:088;-0.36272156;-0.19273324;
0;04:04:11:099;0.088585466;-0.20709845;
0;04:04:11:109;0.15083471;0.15682021;
0;04:04:11:120;-0.2825158;-0.5386954;
0;04:04:11:131;0.08020575;3.8594532;
0;04:04:11:142;0.14844051;-0.46567222;
0;04:04:11:153;-0.015562311;-0.19871874;
0;04:04:11:163;1.0809821;-1.459266;
0;04:04:11:173;0.40462008;-0.30166942;
0;04:04:11:183;-0.30166942;0.37110126;
0;04:04:11:193;-0.21547815;-0.23702596;
0;04:04:11:204;0.142455;-0.6548142;
0;04:04:11:213;0.51714754;-0.4261679;
0;04:04:11:223;0.005985504;-0.18914193;
0;04:04:11:233;-0.10414778;-0.021547815;
0;04:04:11:243;0.22505496;-0.25019407;
0;04:04:11:254;-0.0023942017;-0.5279215;
0;04:04:11:265;-0.05865794;-0.46567222;
0;04:04:11:276;0.21667525;-0.142455;
0;04:04:11:286;0.1388637;-0.14963761;
0;04:04:11:297;0.20111294;-0.2885013;
0;04:04:11:307;0.094570965;-0.08499416;
0;04:04:11:317;0.073023155;-0.020350715;
0;04:04:11:327;0.047884032;-0.05267244;
0;04:04:11:338;0.077811554;-0.06703765;
0;04:04:11:347;0.088585466;-0.01316811;
0;04:04:11:357;0.077811554;0.08738836;
0;04:04:11:368;0.15203181;0.055066638;
0;04:04:11:378;0.15562311;0.01316811;
0;04:04:11:389;0.1316811;-0.03232172;
0;04:04:11:400;0.15322891;0.05267244;
0;04:04:11:410;-0.05865794;1.2354081;
0;04:04:11:421;-1.2006922;-1.1204864;
0;04:04:11:431;1.7034745;1.1504139;
0;04:04:11:442;0.35075054;1.1240777;
0;04:04:11:452;-0.59615624;1.5107412;
0;04:04:11:462;0.6440403;1.1528081;
0;04:04:11:473;-0.11133038;5.044583;
0;04:04:11:483;-0.40102878;2.7605145;
0;04:04:11:494;-0.1412579;2.5258827;
0;04:04:11:505;-0.24660277;1.5705963;
0;04:04:11:516;-1.1252748;3.3207579;
0;04:04:11:527;0.2825158;-0.8822633;
0;04:04:11:538;0.36511576;-0.30286652;
0;04:04:11:548;0.31603462;-0.36272156;
0;04:04:11:558;-0.050278235;-0.5542577;
0;04:04:11:569;-0.08020575;-0.6979098;
0;04:04:11:579;-0.16160862;-0.6560113;
0;04:04:11:588;-0.36750996;-1.1109096;
0;04:04:11:598;0.15442601;-1.7082629;
0;04:04:11:608;0.037110128;-1.9416976;
0;04:04:11:618;0.09935937;0.9792285;
0;04:04:11:629;0.5662287;-0.088585466;
0;04:04:11:640;-0.05746084;-0.8463503;
0;04:04:11:651;0.63206923;-0.5506664;
0;04:04:11:661;0.24899697;-1.9835961;
0;04:04:11:672;0.37828386;-1.5885528;
0;04:04:11:682;0.8619126;-1.8926164;
0;04:04:11:693;0.11971009;-1.9369092;
0;04:04:11:703;0.39145198;-0.91578215;
0;04:04:11:714;0.088585466;-0.046686932;
0;04:04:11:725;0.15442601;-0.011971008;
0;04:04:11:735;0.31004912;0.18914193;
0;04:04:11:746;0.16998832;-0.010773907;
0;04:04:11:756;0.29688102;0.24779987;
0;04:04:11:767;-0.20829555;0.11731588;
0;04:04:11:777;-0.12449849;0.4237737;
0;04:04:11:788;-0.6452374;1.8100165;
0;04:04:11:798;0.90859956;13.460202;
0;04:04:11:808;1.3108255;5.6203885;
0;04:04:11:819;-0.30645782;8.034941;
0;04:04:11:829;-0.11851298;8.067263;
0;04:04:11:839;-1.6962919;2.0231004;
0;04:04:11:850;-2.585738;3.4524388;
0;04:04:11:860;-2.9269116;3.8786068;
0;04:04:11:870;-2.2050598;-0.9648633;
0;04:04:11:881;1.99437;-0.80924016;
0;04:04:11:892;3.2561142;-0.18794483;
0;04:04:11:903;0.7182605;-2.2002714;
0;04:04:11:913;0.7685388;-2.111686;
0;04:04:11:923;0.37828386;-1.2078748;
0;04:04:11:934;0.0011971008;0.20709845;
0;04:04:11:944;-0.39145198;-1.2054806;
0;04:04:11:954;-0.08379706;-0.17956513;
0;04:04:11:965;1.0163386;0.06943185;
0;04:04:11:975;0.5327099;0.053869538;
0;04:04:11:985;0.5231331;0.8702923;
0;04:04:11:996;-0.15562311;-1.7118542;
0;04:04:12:007;-1.4808137;-1.389834;
0;04:04:12:018;0.2861071;-1.0079589;
0;04:04:12:028;0.28491;-0.4333505;
0;04:04:12:038;0.50158525;0.30645782;
0;04:04:12:049;-0.0023942017;-1.376666;
0;04:04:12:060;-0.24540567;0.31364042;
0;04:04:12:071;-0.15322891;-0.89902276;
0;04:04:12:081;-0.130484;1.401805;
0;04:04:12:092;0.20709845;-0.39624038;
0;04:04:12:103;0.5542577;-2.8491;
0;04:04:12:113;1.2294226;1.1659763;
0;04:04:12:123;-0.10295067;-0.2693477;
0;04:04:12:134;-0.2861071;-0.62129533;
0;04:04:12:145;0.005985504;1.2413936;
0;04:04:12:156;0.31124622;0.5303157;
0;04:04:12:166;2.6659436;3.0945058;
0;04:04:12:177;-6.18542;11.675324;
0;04:04:12:188;2.2900538;4.357447;
0;04:04:12:199;-0.6991069;10.997766;
0;04:04:12:209;0.6823475;4.3622355;
0;04:04:12:220;-1.8243817;0.25498247;
0;04:04:12:230;-1.411382;-0.22984336;
0;04:04:12:241;-0.06823475;-1.0402806;
0;04:04:12:251;-0.6679823;0.47165772;
0;04:04:12:262;0.79008657;-0.2717419;
0;04:04:12:272;-0.33638534;-1.4999673;
0;04:04:12:283;1.6017209;-1.2318168;
0;04:04:12:293;1.4137762;-0.59974754;
0;04:04:12:304;0.8762778;1.377863;
0;04:04:12:314;0.1400608;-1.2162545;
0;04:04:12:325;-1.2856863;-0.49799395;
0;04:04:12:336;-0.4225766;-0.47884035;
0;04:04:12:345;0.79248077;-0.46327803;
0;04:04:12:356;-0.23942018;-1.2892777;
0;04:04:12:366;-0.142455;-0.36152446;
0;04:04:12:377;0.33279404;-0.10055647;
0;04:04:12:387;1.9476831;0.3172317;
0;04:04:12:398;2.0745757;0.51235914;
0;04:04:12:408;-0.8451532;-0.3866636;
0;04:04:12:418;-1.0079589;-0.439336;
0;04:04:12:429;0.49919105;-0.7793127;
0;04:04:12:439;0.961272;0.6799533;
0;04:04:12:449;-0.24779987;-1.9093759;
0;04:04:12:460;-0.4189853;-1.174356;
0;04:04:12:470;-0.31004912;0.4357447;
0;04:04:12:481;-1.3946224;-0.9876082;
0;04:04:12:491;0.4345476;0.33518824;
0;04:04:12:502;-0.2896984;-0.6500258;
0;04:04:12:512;0.12090719;-1.5215151;
0;04:04:12:523;0.9935937;-0.9720459;
0;04:04:12:533;-0.008379706;-0.7565677;
0;04:04:12:544;0.34117374;0.4381389;
0;04:04:12:554;-0.59017074;-1.5131354;
0;04:04:12:565;-0.8690952;0.7673417;
0;04:04:12:576;0.8643068;0.29328972;
0;04:04:12:587;-0.11851298;-2.621651;
0;04:04:12:597;0.78050977;0.6979098;
0;04:04:12:608;0.8858546;1.0510546;
0;04:04:12:617;-0.59855044;0.4297592;
0;04:04:12:627;-0.33399114;0.11611878;
0;04:04:12:637;0.61770403;-0.037110128;
0;04:04:12:647;0.47764325;-0.9888053;
0;04:04:12:658;0.11611878;-2.0841527;
0;04:04:12:669;-0.4369418;-1.6412252;
0;04:04:12:679;-0.12808979;-1.7250223;
0;04:04:12:689;0.2885013;1.2844892;
0;04:04:12:700;0.1412579;0.5470751;
0;04:04:12:710;-0.093373865;0.5674258;
0;04:04:12:721;-0.15203181;-2.3654714;
0;04:04:12:731;0.24660277;0.30765492;
0;04:04:12:741;-0.045489833;-0.7338228;
0;04:04:12:751;-0.2681506;-0.094570965;
0;04:04:12:761;0.4261679;-1.1683705;
0;04:04:12:771;0.17477672;-0.09696517;
0;04:04:12:782;0.088585466;-0.34237084;
0;04:04:12:792;0.061052144;0.40940848;
0;04:04:12:802;-0.06823475;0.20949265;
0;04:04:12:812;-0.06464344;0.1400608;
0;04:04:12:822;0.108936176;0.15083471;
0;04:04:12:832;0.06344634;0.4261679;
0;04:04:12:842;-0.025139118;0.4333505;
0;04:04:12:853;0.05865794;0.33159694;
0;04:04:12:864;0.09696517;0.21308395;
0;04:04:12:874;0.095768064;0.2693477;
0;04:04:12:885;0.050278235;0.34476504;
0;04:04:12:895;0.017956512;0.33399114;
0;04:04:12:906;0.06584055;0.2633622;
0;04:04:12:916;0.06464344;0.2669535;
0;04:04:12:927;0.01316811;0.33758244;
0;04:04:12:937;0.047884032;0.2873042;
0;04:04:12:947;0.05865794;0.2645593;
0;04:04:12:958;0.093373865;0.24301147;
0;04:04:12:968;0.046686932;0.30166942;
0;04:04:12:978;0.05865794;0.29688102;
0;04:04:12:988;0.050278235;0.2825158;
0;04:04:12:998;0.046686932;0.2765303;
0;04:04:13:009;0.047884032;0.2669535;
0;04:04:13:019;0.062249243;0.32800564;
0;04:04:13:030;0.023942016;0.25617957;
0;04:04:13:041;0.25617957;0.23942018;
0;04:04:13:050;0.053869538;0.1340753;
0;04:04:13:061;-0.009576807;0.36990416;
0;04:04:13:071;0.06703765;0.14724341;
0;04:04:13:081;0.22146365;0.21068975;
0;04:04:13:092;-0.24779987;0.32680854;
0;04:04:13:103;0.10534488;0.33758244;
0;04:04:13:113;0.2645593;0.19393034;
0;04:04:13:124;0.005985504;0.23343466;
0;04:04:13:134;0.01316811;0.2813187;
0;04:04:13:144;0.088585466;0.24301147;
0;04:04:13:154;0.0035913025;0.20590134;
0;04:04:13:165;0.059855044;0.21068975;
0;04:04:13:175;0.12689269;0.25737667;
0;04:04:13:186;0.035913024;0.25977087;
0;04:04:13:197;0.015562311;0.23104046;
0;04:04:13:207;0.019153614;0.22864626;
0;04:04:13:218;0.02633622;0.22744916;
0;04:04:13:229;0.059855044;0.22266077;
0;04:04:13:239;0.12330139;0.19393034;
0;04:04:13:250;0.08619126;0.20231004;
0;04:04:13:261;0.076614454;0.19991584;
0;04:04:13:272;0.06344634;0.21906945;
0;04:04:13:282;0.0011971008;0.19393034;
0;04:04:13:293;0.061052144;0.20829555;
0;04:04:13:303;0.07062895;0.20949265;
0;04:04:13:314;0.092176765;0.18794483;
0;04:04:13:325;0.074220255;0.19871874;
0;04:04:13:336;0.06584055;0.20231004;
0;04:04:13:346;0.037110128;0.19512744;
0;04:04:13:357;0.03232172;0.20350714;
0;04:04:13:368;0.05626374;0.18914193;
0;04:04:13:378;0.055066638;0.20709845;
0;04:04:13:389;0.074220255;0.22026655;
0;04:04:13:399;0.074220255;0.22026655;
0;04:04:13:409;0.053869538;0.21068975;
0;04:04:13:420;0.046686932;0.21428105;
0;04:04:13:430;0.051475335;0.22744916;
0;04:04:13:440;0.05746084;0.22625206;
0;04:04:13:451;0.077811554;0.22744916;
0;04:04:13:462;0.039504327;0.24061728;
0;04:04:13:472;0.04309563;0.23942018;
0;04:04:13:483;0.055066638;0.24181437;
0;04:04:13:494;0.05865794;0.24301147;
0;04:04:13:504;0.062249243;0.23702596;
0;04:04:13:514;0.05746084;0.23463176;
0;04:04:13:525;0.046686932;0.24540567;
0;04:04:13:535;0.04309563;0.22744916;
0;04:04:13:546;0.06464344;0.23582886;
0;04:04:13:557;0.073023155;0.22625206;
0;04:04:13:567;0.08020575;0.23104046;
0;04:04:13:578;0.039504327;0.23343466;
0;04:04:13:589;0.07182605;0.23463176;
0;04:04:13:599;0.051475335;0.22864626;
0;04:04:13:610;0.047884032;0.22505496;
0;04:04:13:620;0.06703765;0.22744916;
0;04:04:13:630;0.047884032;0.23582886;
0;04:04:13:641;0.06344634;0.22864626;
0;04:04:13:652;0.061052144;0.22864626;
0;04:04:13:662;0.059855044;0.22744916;
0;04:04:13:673;0.06584055;0.20350714;
0;04:04:13:683;0.053869538;0.21547815;
0;04:04:13:693;0.088585466;0.21906945;
0;04:04:13:703;0.05626374;0.23104046;
0;04:04:13:714;0.050278235;0.21667525;
0;04:04:13:725;0.053869538;0.21308395;
0;04:04:13:736;0.047884032;0.21906945;
0;04:04:13:747;0.044292733;0.22864626;
0;04:04:13:757;0.05746084;0.23104046;
0;04:04:13:768;0.059855044;0.22505496;
0;04:04:13:779;0.05746084;0.22266077;
0;04:04:13:789;0.05267244;0.24660277;
0;04:04:13:799;0.06823475;0.21547815;
0;04:04:13:810;0.045489833;0.23702596;
0;04:04:13:821;0.05267244;0.20231004;
0;04:04:13:831;0.029927522;0.21906945;
0;04:04:13:842;0.06464344;0.21068975;
0;04:04:13:852;0.05865794;0.22266077;
0;04:04:13:863;0.05626374;0.22625206;
0;04:04:13:873;0.08020575;0.23822308;
0;04:04:13:884;0.04309563;0.23104046;
0;04:04:13:894;0.055066638;0.21428105;
0;04:04:13:904;0.050278235;0.21787235;
0;04:04:13:915;0.053869538;0.21188685;
0;04:04:13:926;0.044292733;0.24420857;
0;04:04:13:937;0.073023155;0.22864626;
0;04:04:13:947;0.062249243;0.21787235;
0;04:04:13:957;0.05865794;0.21787235;
0;04:04:13:968;0.06584055;0.21308395;
0;04:04:13:978;0.07182605;0.22744916;
0;04:04:13:989;0.05267244;0.22864626;
0;04:04:13:999;0.038307227;0.23223756;
0;04:04:14:010;0.05746084;0.21188685;
0;04:04:14:020;0.055066638;0.23343466;
0;04:04:14:031;0.05746084;0.21787235;
0;04:04:14:041;0.039504327;0.21787235;
0;04:04:14:052;0.04309563;0.22625206;
0;04:04:14:062;0.07182605;0.21906945;
0;04:04:14:072;0.044292733;0.21667525;
0;04:04:14:083;0.053869538;0.20949265;
0;04:04:14:093;0.044292733;0.22266077;
0;04:04:14:104;0.047884032;0.21906945;
0;04:04:14:114;0.045489833;0.21667525;
0;04:04:14:125;0.059855044;0.23104046;
0;04:04:14:135;0.051475335;0.23343466;
0;04:04:14:146;0.05865794;0.23463176;
0;04:04:14:155;0.047884032;0.22505496;
0;04:04:14:166;0.05626374;0.22385786;
0;04:04:14:176;0.06464344;0.21428105;
0;04:04:14:187;0.077811554;0.21667525;
0;04:04:14:197;0.04309563;0.22984336;
0;04:04:14:208;0.053869538;0.22266077;
0;04:04:14:218;0.06703765;0.23582886;
0;04:04:14:228;0.08379706;0.23463176;
0;04:04:14:239;0.053869538;0.22385786;
0;04:04:14:250;0.049081136;0.20949265;
0;04:04:14:261;0.05626374;0.22385786;
0;04:04:14:271;0.06823475;0.24540567;
0;04:04:14:282;0.059855044;0.22266077;
0;04:04:14:293;0.055066638;0.23223756;
0;04:04:14:303;0.06344634;0.22266077;
0;04:04:14:314;0.06584055;0.23702596;
0;04:04:14:325;0.05626374;0.23463176;
0;04:04:14:336;0.04189853;0.24301147;
0;04:04:14:345;0.062249243;0.22625206;
0;04:04:14:356;0.050278235;0.21547815;
0;04:04:14:367;0.055066638;0.23702596;
0;04:04:14:377;0.06703765;0.22505496;
0;04:04:14:387;0.059855044;0.23463176;
0;04:04:14:398;0.05626374;0.23343466;
0;04:04:14:409;0.062249243;0.23343466;
0;04:04:14:420;0.05626374;0.21547815;
0;04:04:14:430;0.06584055;0.21667525;
0;04:04:14:441;0.05865794;0.22266077;
0;04:04:14:451;0.049081136;0.23343466;
0;04:04:14:462;0.06823475;0.24540567;
0;04:04:14:472;0.06703765;0.24660277;
0;04:04:14:482;0.039504327;0.23463176;
0;04:04:14:492;0.06943185;0.25378537;
0;04:04:14:502;0.05865794;0.24061728;
0;04:04:14:512;0.05626374;0.24540567;
0;04:04:14:522;0.035913024;0.24540567;
0;04:04:14:533;0.077811554;0.21308395;
0;04:04:14:544;0.06464344;0.22984336;
0;04:04:14:554;0.04070143;0.22505496;
0;04:04:14:564;0.06823475;0.24061728;
0;04:04:14:575;0.037110128;0.21068975;
0;04:04:14:585;0.06823475;0.22625206;
0;04:04:14:595;0.06584055;0.22864626;
0;04:04:14:606;0.035913024;0.24899697;
0;04:04:14:616;0.038307227;0.22266077;
0;04:04:14:627;0.053869538;0.22385786;
0;04:04:14:637;0.055066638;0.21428105;
0;04:04:14:649;0.05267244;0.22266077;
0;04:04:14:659;0.045489833;0.24420857;
0;04:04:14:670;0.059855044;0.22026655;
0;04:04:14:680;0.06464344;0.22266077;
0;04:04:14:691;0.059855044;0.24061728;
0;04:04:14:701;0.055066638;0.21308395;
0;04:04:14:711;0.06823475;0.23822308;
0;04:04:14:721;0.05267244;0.22744916;
0;04:04:14:731;0.053869538;0.22625206;
0;04:04:14:742;0.05626374;0.24899697;
0;04:04:14:753;0.055066638;0.21547815;
0;04:04:14:763;0.049081136;0.23942018;
0;04:04:14:774;0.055066638;0.23702596;
0;04:04:14:784;0.076614454;0.22505496;
0;04:04:14:795;0.053869538;0.24779987;
0;04:04:14:805;0.06703765;0.24181437;
0;04:04:14:816;0.051475335;0.23343466;
0;04:04:14:827;0.04309563;0.23223756;
0;04:04:14:838;0.04189853;0.24420857;
0;04:04:14:848;0.061052144;0.24181437;
0;04:04:14:858;0.05746084;0.22385786;
0;04:04:14:869;0.05267244;0.21547815;
0;04:04:14:879;0.04189853;0.21787235;
0;04:04:14:889;0.05746084;0.23343466;
0;04:04:14:900;0.050278235;0.23463176;
0;04:04:14:911;0.06344634;0.22625206;
0;04:04:14:921;0.062249243;0.22385786;
0;04:04:14:931;0.05865794;0.22505496;
0;04:04:14:941;0.05865794;0.23223756;
0;04:04:14:951;0.045489833;0.23104046;
0;04:04:14:962;0.06823475;0.23463176;
0;04:04:14:972;0.05626374;0.22984336;
0;04:04:14:983;0.038307227;0.24540567;
0;04:04:14:993;0.05865794;0.24779987;
0;04:04:15:004;0.06464344;0.22505496;
0;04:04:15:015;0.08379706;0.23702596;
0;04:04:15:025;0.075417355;0.23942018;
0;04:04:15:036;0.074220255;0.22625206;
0;04:04:15:047;0.051475335;0.23343466;
0;04:04:15:057;0.047884032;0.22026655;
0;04:04:15:068;0.061052144;0.22984336;
0;04:04:15:079;0.045489833;0.21428105;
0;04:04:15:090;0.06823475;0.23822308;
0;04:04:15:100;0.050278235;0.23104046;
0;04:04:15:110;0.044292733;0.22505496;
0;04:04:15:121;0.061052144;0.22864626;
0;04:04:15:132;0.049081136;0.23942018;
0;04:04:15:143;0.038307227;0.22505496;
0;04:04:15:154;0.035913024;0.22505496;
0;04:04:15:164;0.061052144;0.22026655;
0;04:04:15:175;0.045489833;0.22505496;
0;04:04:15:185;0.079008654;0.24899697;
0;04:04:15:196;0.050278235;0.22146365;
0;04:04:15:207;0.059855044;0.22984336;
0;04:04:15:217;0.05267244;0.23702596;
0;04:04:15:228;0.04070143;0.22266077;
0;04:04:15:238;0.06823475;0.22266077;
0;04:04:15:248;0.05626374;0.22385786;
0;04:04:15:258;0.07182605;0.21547815;
0;04:04:15:268;0.059855044;0.22026655;
0;04:04:15:278;0.046686932;0.23104046;
0;04:04:15:288;0.046686932;0.22505496;
0;04:04:15:299;0.05626374;0.21787235;
0;04:04:15:310;0.055066638;0.23343466;
0;04:04:15:321;0.055066638;0.20709845;
0;04:04:15:331;0.053869538;0.22864626;
0;04:04:15:342;0.06703765;0.23223756;
0;04:04:15:353;0.05746084;0.21667525;
0;04:04:15:364;0.034715924;0.24660277;
0;04:04:15:373;0.055066638;0.20949265;
0;04:04:15:383;0.05865794;0.21787235;
0;04:04:15:394;0.06584055;0.23582886;
0;04:04:15:404;0.050278235;0.22744916;
0;04:04:15:414;0.034715924;0.23104046;
0;04:04:15:425;0.053869538;0.24540567;
0;04:04:15:435;0.05746084;0.22266077;
0;04:04:15:446;0.055066638;0.23942018;
0;04:04:15:456;0.055066638;0.23104046;
0;04:04:15:467;0.07182605;0.23463176;
0;04:04:15:477;0.055066638;0.23343466;
0;04:04:15:487;0.059855044;0.20709845;
0;04:04:15:498;0.05746084;0.22026655;
0;04:04:15:508;0.039504327;0.21787235;
0;04:04:15:518;0.076614454;0.22744916;
0;04:04:15:529;0.050278235;0.21667525;
0;04:04:15:540;0.05865794;0.20350714;
0;04:04:15:551;0.044292733;0.21188685;
0;04:04:15:562;0.035913024;0.20829555;
0;04:04:15:572;0.04309563;0.21068975;
0;04:04:15:582;0.05865794;0.21308395;
0;04:04:15:593;0.074220255;0.21787235;
0;04:04:15:603;0.050278235;0.21068975;
0;04:04:15:613;0.062249243;0.22385786;
0;04:04:15:624;0.06823475;0.22026655;
0;04:04:15:634;0.046686932;0.24540567;
0;04:04:15:645;0.055066638;0.21188685;
0;04:04:15:655;0.055066638;0.22864626;
0;04:04:15:665;0.05746084;0.21068975;
0;04:04:15:675;0.047884032;0.22864626;
0;04:04:15:685;0.055066638;0.23942018;
0;04:04:15:696;0.050278235;0.22385786;
0;04:04:15:707;0.047884032;0.21667525;
0;04:04:15:717;0.046686932;0.19871874;
0;04:04:15:728;0.06943185;0.22385786;
0;04:04:15:738;0.053869538;0.22984336;
0;04:04:15:748;0.04189853;0.24181437;
0;04:04:15:759;0.05267244;0.22146365;
0;04:04:15:771;0.05865794;0.24660277;
0;04:04:15:781;0.05746084;0.23463176;
0;04:04:15:792;0.055066638;0.24061728;
0;04:04:15:803;0.062249243;0.21787235;
0;04:04:15:813;0.05746084;0.21188685;
0;04:04:15:824;0.04309563;0.22266077;
0;04:04:15:835;0.04070143;0.21068975;
0;04:04:15:846;0.031124622;0.23822308;
0;04:04:15:857;0.046686932;0.25258827;
0;04:04:15:867;0.053869538;0.21308395;
0;04:04:15:877;0.05267244;0.22984336;
0;04:04:15:888;0.055066638;0.23702596;
0;04:04:15:899;0.062249243;0.23822308;
0;04:04:15:909;0.055066638;0.22984336;
0;04:04:15:920;0.05746084;0.25139117;
0;04:04:15:930;0.055066638;0.24540567;
0;04:04:15:941;0.073023155;0.24181437;
0;04:04:15:952;0.05267244;0.22026655;
0;04:04:15:962;0.046686932;0.23104046;
0;04:04:15:973;0.050278235;0.23104046;
0;04:04:15:983;0.038307227;0.20829555;
0;04:04:15:993;0.046686932;0.21906945;
0;04:04:16:003;0.059855044;0.23343466;
0;04:04:16:014;0.053869538;0.21906945;
0;04:04:16:024;0.06703765;0.22625206;
0;04:04:16:035;0.05267244;0.23942018;
0;04:04:16:046;0.050278235;0.22146365;
0;04:04:16:057;0.06823475;0.23223756;
0;04:04:16:067;0.037110128;0.23702596;
0;04:04:16:077;0.045489833;0.23942018;
0;04:04:16:087;0.06823475;0.23343466;
0;04:04:16:098;0.03232172;0.22026655;
0;04:04:16:109;0.045489833;0.23104046;
0;04:04:16:118;0.04189853;0.22984336;
0;04:04:16:129;0.039504327;0.21308395;
0;04:04:16:139;0.037110128;0.21308395;
0;04:04:16:149;0.079008654;0.23463176;
0;04:04:16:159;0.06344634;0.21787235;
0;04:04:16:170;0.059855044;0.23104046;
0;04:04:16:180;0.059855044;0.23822308;
0;04:04:16:191;0.077811554;0.22266077;
0;04:04:16:201;0.06584055;0.24061728;
0;04:04:16:211;0.062249243;0.23343466;
0;04:04:16:222;0.06943185;0.22625206;
0;04:04:16:232;0.073023155;0.21428105;
0;04:04:16:242;0.05267244;0.23223756;
0;04:04:16:253;0.07182605;0.22505496;
0;04:04:16:263;0.04070143;0.23223756;
0;04:04:16:273;0.062249243;0.23702596;
0;04:04:16:284;0.047884032;0.21906945;
0;04:04:16:294;0.059855044;0.22864626;
0;04:04:16:305;0.06344634;0.22505496;
0;04:04:16:315;0.038307227;0.23223756;
0;04:04:16:326;0.06943185;0.23104046;
0;04:04:16:337;0.04189853;0.24181437;
0;04:04:16:347;0.05626374;0.21428105;
0;04:04:16:357;0.06344634;0.22266077;
0;04:04:16:368;0.059855044;0.25498247;
0;04:04:16:379;0.055066638;0.22625206;
0;04:04:16:391;0.06464344;0.22266077;
0;04:04:16:401;0.038307227;0.23343466;
0;04:04:16:411;0.061052144;0.24181437;
0;04:04:16:422;0.050278235;0.21906945;
0;04:04:16:433;0.06344634;0.21308395;
0;04:04:16:443;0.07062895;0.23942018;
0;04:04:16:454;0.06823475;0.22625206;
0;04:04:16:465;0.075417355;0.22385786;
0;04:04:16:476;0.053869538;0.22026655;
0;04:04:16:487;0.053869538;0.22266077;
0;04:04:16:497;0.046686932;0.22385786;
0;04:04:16:508;0.05267244;0.22505496;
0;04:04:16:518;0.053869538;0.22505496;
0;04:04:16:529;0.06584055;0.22864626;
0;04:04:16:540;0.076614454;0.21308395;
0;04:04:16:551;0.046686932;0.21787235;
0;04:04:16:561;0.029927522;0.22266077;
0;04:04:16:572;0.046686932;0.23582886;
0;04:04:16:582;0.051475335;0.23343466;
0;04:04:16:593;0.053869538;0.22385786;
0;04:04:16:603;0.04309563;0.21547815;
0;04:04:16:613;0.04189853;0.22744916;
0;04:04:16:624;0.061052144;0.22864626;
0;04:04:16:634;0.06344634;0.23942018;
0;04:04:16:645;0.045489833;0.23582886;
0;04:04:16:656;0.050278235;0.21428105;
0;04:04:16:667;0.05626374;0.20949265;
0;04:04:16:677;0.039504327;0.21906945;
0;04:04:16:688;0.04189853;0.19991584;
0;04:04:16:700;0.039504327;0.20949265;
0;04:04:16:710;0.04070143;0.20949265;
0;04:04:16:721;0.01436521;0.22864626;
0;04:04:16:731;0.047884032;0.24301147;
0;04:04:16:741;0.050278235;0.21906945;
0;04:04:16:752;0.053869538;0.22984336;
0;04:04:16:762;0.059855044;0.23463176;
0;04:04:16:772;0.049081136;0.22146365;
0;04:04:16:783;0.055066638;0.22984336;
0;04:04:16:794;0.047884032;0.22266077;
0;04:04:16:804;0.08020575;0.23223756;
0;04:04:16:815;0.045489833;0.22864626;
0;04:04:16:825;0.06703765;0.22505496;
0;04:04:16:836;0.06344634;0.21906945;
0;04:04:16:847;0.045489833;0.22385786;
0;04:04:16:857;0.06344634;0.22266077;
0;04:04:16:868;0.05267244;0.20949265;
0;04:04:16:879;0.05865794;0.20949265;
0;04:04:16:889;0.059855044;0.21428105;
0;04:04:16:900;0.06584055;0.20949265;
0;04:04:16:909;0.047884032;0.21308395;
0;04:04:16:920;0.044292733;0.21188685;
0;04:04:16:930;0.029927522;0.22864626;
0;04:04:16:941;0.047884032;0.23343466;
0;04:04:16:952;0.049081136;0.22625206;
0;04:04:16:962;0.05746084;0.22146365;
0;04:04:16:973;0.045489833;0.21667525;
0;04:04:16:983;0.045489833;0.21547815;
0;04:04:16:994;0.051475335;0.22266077;
0;04:04:17:004;0.07182605;0.21428105;
0;04:04:17:015;0.037110128;0.21906945;
0;04:04:17:025;0.062249243;0.21667525;
0;04:04:17:036;0.04309563;0.21667525;
0;04:04:17:046;0.02873042;0.21308395;
0;04:04:17:055;0.055066638;0.22266077;
0;04:04:17:066;0.06344634;0.22984336;
0;04:04:17:077;0.05746084;0.20829555;
0;04:04:17:087;0.051475335;0.23343466;
0;04:04:17:097;0.05267244;0.24540567;
0;04:04:17:108;0.059855044;0.23582886;
0;04:04:17:118;0.059855044;0.22385786;
0;04:04:17:129;0.04189853;0.22146365;
0;04:04:17:139;0.06584055;0.22984336;
0;04:04:17:150;0.039504327;0.23822308;
0;04:04:17:161;0.04070143;0.24540567;
0;04:04:17:171;0.04070143;0.24181437;
0;04:04:17:182;0.059855044;0.23582886;
0;04:04:17:193;0.038307227;0.24540567;
0;04:04:17:203;0.05746084;0.24301147;
0;04:04:17:214;0.051475335;0.22266077;
0;04:04:17:225;0.06344634;0.22864626;
0;04:04:17:236;0.062249243;0.21787235;
0;04:04:17:246;0.061052144;0.21308395;
0;04:04:17:256;0.06464344;0.22026655;
0;04:04:17:265;0.047884032;0.24660277;
0;04:04:17:276;0.053869538;0.22505496;
0;04:04:17:287;0.035913024;0.23463176;
0;04:04:17:298;0.053869538;0.23343466;
0;04:04:17:309;0.04309563;0.22984336;
0;04:04:17:319;0.062249243;0.23343466;
0;04:04:17:330;0.04189853;0.22505496;
0;04:04:17:341;0.05626374;0.22864626;
0;04:04:17:352;0.022744916;0.23343466;
0;04:04:17:362;0.046686932;0.22026655;
0;04:04:17:373;0.06344634;0.21188685;
0;04:04:17:384;0.06344634;0.22385786;
0;04:04:17:395;0.05267244;0.24061728;
0;04:04:17:406;0.037110128;0.22146365;
0;04:04:17:416;0.04309563;0.24420857;
0;04:04:17:427;0.055066638;0.23463176;
0;04:04:17:437;0.04309563;0.24660277;
0;04:04:17:447;0.061052144;0.24779987;
0;04:04:17:457;0.07182605;0.21308395;
0;04:04:17:468;0.053869538;0.21547815;
0;04:04:17:479;0.050278235;0.21667525;
0;04:04:17:489;0.027533319;0.21667525;
