Round;Timestamp;AccX;AccY;
0;11;4.173094;-4.280833;
0;27;-0.12210426;-1.460463;
0;68;2.054225;-1.8902222;
0;108;-0.85083944;0.7592613;
0;149;-1.4006081;-0.62458736;
0;190;1.622371;-0.5374983;
0;231;0.2879028;-0.33548757;
0;271;3.2644942;0.037708655;
0;313;-0.50757074;-1.2632407;
0;357;0.31334117;-0.42646718;
0;399;0.51056355;-0.55934536;
0;441;-0.6542156;0.7781155;
0;481;-0.7646482;-1.4853029;
0;527;0.4037223;0.57969606;
0;571;-0.9750386;-0.25737667;
0;613;0.4016273;1.2063785;
0;654;1.4440029;-0.317531;
0;694;-0.23253691;-0.68444246;
0;735;0.096965075;-0.22894554;
0;778;0.15203184;-0.5820903;
0;819;1.1584945;-0.01825577;
0;861;-0.6368576;-1.041777;
0;905;1.2934675;-0.36272156;
0;948;-0.21278468;0.55964464;
0;989;2.1490953;-0.20350718;
0;1031;-1.9497781;-0.7754221;
0;1073;-1.3769653;0.81911623;
0;1115;-6.904578;-2.753631;
0;1157;-7.3663597;-4.0737343;
0;1201;-7.664139;1.5427637;
0;1244;-8.371626;-1.8755578;
0;1287;-7.53156;-0.9256582;
0;1330;-7.9074497;-1.052551;
0;1372;-7.4684124;-0.29089555;
0;1414;-7.0955157;0.2825158;
0;1457;-5.6982;-0.67426705;
0;1499;-5.811326;-1.5738884;
0;1541;-3.4715927;-0.7966706;
0;1581;-4.578911;-1.0878654;
0;1623;-2.9317;-2.371756;
0;1665;-0.7607577;-0.5162498;
0;1707;-5.4863133;-0.95588493;
0;1750;-1.0474632;-0.08409636;
0;1792;-1.839046;-1.170166;
0;1835;-1.7582419;-0.06165068;
0;1877;0.9124901;-0.3238158;
0;1918;0.83827;0.19572604;
0;1959;-1.5556326;0.40581718;
0;2001;-0.8224083;-0.8454524;
0;2044;-1.546355;-0.9388263;
0;2085;-0.45250404;0.659004;
0;2127;-3.1432874;-0.17148466;
0;2169;-3.9384618;1.5930419;
0;2211;-4.73184;-1.5167267;
0;2255;-2.920926;0.18375498;
0;2297;-6.4436946;0.28520927;
0;2339;-5.671265;-1.5664065;
0;2381;-4.6321816;0.56772506;
0;2423;-4.793791;-0.61530983;
0;2466;-5.805939;-1.4909892;
0;2508;-6.0046577;-1.0031705;
0;2549;-5.5129485;-0.35314474;
0;2590;-7.715315;-0.24929622;
0;2632;-7.0114193;-0.9504981;
0;2674;-6.5367694;-1.2485762;
0;2716;-7.6925697;-0.60124385;
0;2758;-6.0010667;-1.493084;
0;2799;-5.922357;-0.31064767;
0;2841;-5.7260323;-0.6844424;
0;2881;-6.1938;-0.5336077;
0;2923;-8.591593;-1.1650784;
0;2965;-5.030517;-0.3229179;
0;3009;-5.1933227;0.13078326;
0;3050;-4.0429087;-1.1139023;
0;3091;-5.271434;-0.96665895;
0;3135;-3.2270846;0.6928221;
0;3177;-3.4665048;-0.21158749;
0;3220;0.29568386;-1.1043255;
0;3264;-1.1357493;-0.7392098;
0;3306;-0.9552865;0.19812012;
0;3348;-0.8212111;-0.6907271;
0;3390;-1.7875707;-1.5454571;
0;3433;0.22714984;-2.0350714;
0;3475;0.014664531;-0.48662138;
0;3516;-0.8649054;-1.371279;
0;3558;3.97228;1.2779052;
0;3599;0.52552736;-0.302268;
0;3640;0.6075287;0.041599233;
0;3682;-0.29179335;-2.5830445;
0;3726;0.09546876;0.42437226;
0;3769;0.54468083;-1.0256162;
0;3810;-0.34177232;0.46178162;
0;3850;-3.0657754;0.1505354;
0;3891;-0.28520936;-0.525228;
0;3934;1.1489177;0.521936;
0;3975;3.76159;0.32890347;
0;4016;3.3515832;-0.079307914;
0;4057;6.930316;-1.3266871;
0;4099;8.203433;-1.0914567;
0;4140;7.558794;-0.99299514;
0;4185;7.647679;-1.7935565;
0;4227;6.2102604;-1.3135189;
0;4268;7.5851297;-0.47734398;
0;4310;4.633379;-0.9226655;
0;4352;5.22744;0.7900866;
0;4395;2.3403323;-1.9590555;
0;4437;-0.43574467;-0.4321534;
0;4479;-0.45280343;0.4914099;
0;4520;-1.0648212;0.38426936;
0;4564;3.574543;-0.8310873;
0;4609;4.325425;-0.59645545;
0;4651;3.5338416;0.5126584;
0;4694;2.7356746;-2.3633764;
0;4736;3.4006643;0.81552494;
0;4777;2.8915968;0.25767595;
0;4818;-3.4284966;-0.36421794;
0;4861;2.8517933;-1.487697;
0;4907;4.0647554;0.3779846;
0;4948;-1.3937247;-0.70000476;
0;4991;0.10145426;-1.0806828;
0;5033;1.3581109;0.01825577;
0;5075;-0.6985083;0.3639186;
0;5116;5.005677;0.12090722;
0;5158;2.9870658;0.561141;
0;5201;-0.17836803;0.2843114;
0;5245;-2.472911;-1.1791443;
0;5285;-2.2221184;-0.6329671;
0;5326;-3.3698387;-1.1985972;
0;5369;-4.959589;1.2485762;
0;5411;-4.9631796;0.5021838;
0;5453;-4.333804;-1.9698294;
0;5496;-6.18542;-0.93433726;
0;5539;-5.807436;-1.0214263;
0;5582;-6.8330517;-0.47734392;
0;5625;-5.33907;-0.12509705;
0;5669;-3.3108819;-1.7546506;
0;5712;-2.3481133;-1.2868834;
0;5753;-3.0113072;0.35733458;
0;5795;0.07900868;-0.3306991;
0;5837;-2.5148096;-0.07601589;
0;5879;-0.046387643;0.20679921;
0;5920;1.4413095;-2.317288;
0;5962;-1.5023615;0.15113398;
0;6005;1.4107835;-1.3676877;
0;6048;-3.4596214;-0.09546879;
0;6090;-2.4854808;0.25827456;
0;6133;-6.156091;-0.4782418;
0;6176;-6.9916677;-0.28281504;
0;6217;-7.1182613;-0.70868367;
0;6258;-7.617153;-0.71855986;
0;6298;-4.685453;-1.543063;
0;6339;-10.043077;-2.6803088;
0;6381;-6.8632784;1.2572552;
0;6424;-10.450391;-1.38744;
0;6467;-6.268319;-2.75423;
0;6510;-9.590573;-0.64194524;
0;6551;-10.258555;-0.9624691;
0;6593;-6.4981627;-1.6600796;
0;6634;-8.625112;-2.0470424;
0;6674;-7.4019737;-1.3186066;
0;6717;-6.8486137;-1.1097124;
0;6759;-7.6584525;-0.6769606;
0;6801;-7.5959044;-1.9557636;
0;6843;-7.5626845;-0.8759786;
0;6885;-3.5631707;-1.0163386;
0;6928;-5.715558;-1.3440449;
0;6970;0.040402174;1.1468227;
0;7013;-1.2398973;1.1632828;
0;7056;-0.093972474;-0.30346504;
0;7098;-0.013168037;-0.9911995;
0;7141;2.1218612;0.32501292;
0;7184;0.58987147;-0.18315643;
0;7226;0.789488;-0.19602528;
0;7267;3.268684;-1.335366;
0;7309;0.14275426;1.0705074;
0;7350;-2.008436;-2.7437553;
0;7392;-1.2111669;0.6018424;
0;7436;0.13317743;-0.5907693;
0;7479;-1.3790601;0.21697453;
0;7521;-1.4715362;-1.906383;
0;7563;0.79726917;0.27503383;
0;7606;-2.8179753;-1.1058218;
0;7648;-0.8029555;-1.3230958;
0;7690;1.1791443;0.35015202;
0;7731;0.6206968;-1.0366893;
0;7773;-0.01885438;0.7873931;
0;7816;-2.0590134;-1.3578116;
0;7857;0.54887074;0.23253685;
0;7899;-0.19991586;-0.892738;
0;7941;-3.0514102;-0.4899135;
0;7984;2.4447792;0.32621002;
0;8026;-1.5975311;-0.31932664;
0;8068;-4.213795;-0.9816227;
0;8110;-0.094571024;-1.1902175;
0;8152;-1.7603368;-0.046986178;
0;8194;-1.2719195;-0.12449846;
0;8237;-2.3950994;-0.0011970699;
0;8279;-1.0552444;-0.592565;
0;8321;-0.25258827;-0.240318;
0;8363;0.96306765;-2.8203697;
0;8405;-0.88196415;-0.46926355;
0;8447;-0.12599471;-0.6186019;
0;8490;0.9085995;-0.3782839;
0;8533;1.2273278;1.1249756;
0;8575;2.44448;0.58598083;
0;8617;-2.359785;1.2111667;
0;8659;-0.46597153;-1.0887631;
0;8701;-1.7106571;0.50397944;
0;8742;-1.519121;-0.45400047;
0;8785;-2.988263;-0.70658875;
0;8828;-4.093487;-1.0893617;
0;8871;-4.009989;-1.9249382;
0;8913;-4.4322658;0.41689035;
0;8953;-0.57161564;0.23163903;
0;8996;-4.4885297;0.39743748;
0;9039;-3.5904047;-1.2437879;
0;9080;-4.2137947;-0.750283;
0;9122;-4.950311;-0.09846155;
0;9165;-3.9713821;-1.0735002;
0;9208;-5.4025164;-0.38546646;
0;9251;-6.369175;-0.21068978;
0;9294;-6.9725137;-0.9400234;
0;9336;-8.927679;-0.81103575;
0;9378;-7.2774754;-1.4966753;
0;9420;-8.1758995;-1.0199299;
0;9462;-4.5028944;0.15951371;
0;9504;-5.8834515;0.27024555;
0;9546;-6.404789;-1.4954783;
0;9590;-4.447529;-0.6449381;
0;9631;-2.8281507;-1.2300211;
0;9673;1.7702129;1.1112088;
0;9715;0.16280568;-0.2576759;
0;9760;-1.1339538;-2.0066402;
0;9802;0.82510173;1.2761095;
0;9844;1.0004771;-0.2002151;
0;9885;-1.1028292;-0.8526351;
0;9927;1.1270704;0.68803364;
0;9969;1.0040683;-0.029628277;
0;10011;-0.946009;1.6846203;
0;10052;2.2373815;-2.882619;
0;10093;-0.56622875;-0.95588505;
0;10136;0.1400609;-0.06703767;
0;10178;2.5381532;0.67366856;
0;10220;-0.26755202;0.7314286;
0;10261;0.589273;0.84365684;
0;10303;1.1896191;0.7790134;
0;10345;3.4189203;0.25558096;
0;10386;0.90859956;1.1459248;
0;10429;-1.7277158;0.30047226;
0;10471;1.1294646;1.3314753;
0;10512;-0.44322652;0.8164228;
0;10554;0.8185177;-0.13736731;
0;10597;-0.5416882;0.51535195;
0;10639;0.8649054;-0.60124385;
0;10681;-0.7182604;-0.786196;
0;10724;-1.4673463;-0.51235914;
0;10765;-3.8627453;-0.6084265;
0;10807;-3.335422;-0.1954267;
0;10848;-0.5090672;-0.09187752;
0;10890;-0.842759;1.4631565;
0;10932;1.6092029;0.3731962;
0;10973;-3.8265328;0.4085107;
0;11015;1.0061634;0.2220622;
0;11058;0.28251582;0.46327803;
0;11100;0.62638307;-1.1100117;
0;11142;2.4094648;1.7477672;
0;11185;0.6766613;0.14544776;
0;1122Round;Timestamp;AccX;AccY;
0;0;-2.7102363;3.5290532;
0;15;-0.653617;3.317765;
0;55;1.6352398;1.5499463;
0;95;-2.6605568;0.269647;
0;136;-0.2267612;1.7206239;
0;179;-0.5650147;1.7836465;
0;222;-0.7785185;2.0536277;
0;264;-0.13069381;1.8269948;
0;307;-0.9901979;1.0410126;
0;348;-0.92663383;0.7786131;
0;391;-0.43307325;0.5759688;
0;437;-0.20611516;0.20605299;
0;480;-0.32676962;0.31291237;
0;522;0.8463426;0.5455995;
0;564;1.1667911;0.7206211;
0;605;1.8709377;0.6384888;
0;646;0.6310548;0.5818636;
0;690;0.11803101;1.0850748;
0;731;-0.1331412;0.7727649;
0;773;-0.88248754;0.82553715;
0;815;-1.0212798;1.3256959;
0;858;-0.5168056;1.6884654;
0;901;-0.58478504;1.3350085;
0;943;-0.8208199;1.1573387;
0;985;-1.493421;1.1079893;
0;1027;-1.311797;1.0336293;
0;1069;-0.13978867;0.29637837;
0;1112;-0.2792782;0.1787153;
0;1154;0.19292234;0.4374924;
0;1196;0.3484807;0.7172798;
0;1237;0.86328316;0.57514733;
0;1279;0.52421486;0.41644466;
0;1322;0.0844604;0.24798392;
0;1364;-0.7484522;0.10811354;
0;1407;-1.3164818;-0.10823653;
0;1449;-2.9896762;-0.19703966;
0;1490;-4.0332603;-0.23674351;
0;1532;-4.4477553;0.22691923;
0;1574;-3.6081333;0.55379;
0;1616;-2.5394642;0.42211404;
0;1658;-2.143203;-0.055463057;
0;1699;-0.22453414;0.5322175;
0;1741;0.69676065;0.61787367;
0;1781;0.61897635;0.24781276;
0;1822;0.47965014;0.09036287;
0;1864;-0.7086772;-0.12785403;
0;1907;-2.8022137;-0.14005432;
0;1949;-4.715555;-0.6327791;
0;1991;-6.392034;-0.9927127;
0;2032;-6.885453;-0.45674577;
0;2077;-7.893656;-0.54216874;
0;2120;-8.173287;-0.6055568;
0;2162;-7.7389874;-0.38472676;
0;2205;-7.044003;-0.21477474;
0;2246;-7.248455;-0.31152862;
0;2287;-7.3019137;-0.66015834;
0;2328;-6.6888623;-0.48260134;
0;2369;-6.949239;-0.65217894;
0;2410;-6.636357;-0.5275794;
0;2451;-5.6594925;-0.11088471;
0;2493;-3.845098;0.2459187;
0;2537;-1.7581098;0.19761752;
0;2578;-0.14320257;0.06527569;
0;2620;1.1924719;0.057621542;
0;2662;1.9132739;0.21843204;
0;2705;2.0986447;0.17049362;
0;2748;1.9801978;0.5226071;
0;2788;1.6308919;0.7215526;
0;2829;0.8087984;0.6185682;
0;2871;-0.45601642;-0.28719664;
0;2911;-1.0726424;-0.43203422;
0;2953;-2.6293516;-0.38338572;
0;2994;-4.6534715;-0.69739026;
0;3036;-6.073481;-1.0929595;
0;3077;-7.0462055;-1.2149847;
0;3119;-8.281551;-1.3970776;
0;3160;-8.823309;-1.4977648;
0;3200;-9.212982;-1.7840381;
0;3241;-8.839952;-1.4786254;
0;3281;-8.7101345;-0.90844417;
0;3323;-8.656861;-1.0590638;
0;3366;-8.858077;-1.3813534;
0;3406;-8.144967;-1.3704044;
0;3447;-8.188448;-1.0503238;
0;3487;-7.055021;-0.99643224;
0;3528;-6.380193;-0.40601286;
0;3569;-4.4729986;0.056399778;
0;3610;-2.6184838;0.024859283;
0;3650;-1.1722468;0.021885987;
0;3691;0.16418804;-0.20848082;
0;3732;1.1057314;-0.3151342;
0;3773;1.6000016;-0.15112364;
0;3814;2.483628;-0.39485797;
0;3854;2.8345635;-0.19828342;
0;3895;3.5113912;-0.2864517;
0;3935;3.790476;-0.79755163;
0;3975;3.6477852;-0.7934265;
0;4016;3.1330736;-0.6207667;
0;4057;2.124661;-0.7871132;
0;4098;1.3688952;-0.68145746;
0;4139;0.9042658;-0.54573417;
0;4179;0.31937063;-0.5825088;
0;4219;-0.08218156;-0.39361298;
0;4260;-1.0888683;-0.39451724;
0;4300;-2.5564451;-0.48467037;
0;4341;-4.1525745;-0.13799953;
0;4381;-4.0431466;-0.90865004;
0;4422;-4.2668843;-0.42974114;
0;4463;-3.1884134;-0.55546516;
0;4503;-1.9081334;-0.34572244;
0;4544;-0.87433577;-0.25185752;
0;4585;-0.12454389;-0.26598698;
0;4626;-0.38663512;-0.47318006;
0;4666;-0.19369976;-0.4051137;
0;4707;0.8792096;-0.9184912;
0;4747;0.21912125;-0.31380105;
0;4789;0.663563;-0.45205325;
0;4829;0.7548562;-0.35498446;
0;4869;0.6287876;-0.47267994;
0;4910;0.4594872;-0.6147826;
0;4951;-0.2687025;-0.5549042;
0;4991;0.19303375;-0.41186747;
0;5032;0.7853474;-0.36260885;
0;5073;1.242373;-0.30908784;
0;5114;2.6892922;-0.27985737;
0;5154;4.18835;-0.593464;
0;5194;5.7371063;-0.72378993;
0;5234;6.7218266;-1.0636035;
0;5275;7.228003;-1.102333;
0;5316;8.015668;-1.0154564;
0;5356;8.351845;-1.274481;
0;5397;7.9778023;-1.5819169;
0;5439;7.622042;-1.4136958;
0;5479;7.662115;-1.840544;
0;5520;6.662772;-1.7792586;
0;5561;6.0764265;-1.5361382;
0;5601;5.1069636;-1.2163363;
0;5642;4.04447;-0.80632764;
0;5683;3.2909687;-0.4963757;
0;5724;2.1896687;-0.23701689;
0;5766;0.9637311;0.036376894;
0;5807;0.35543662;-0.7232056;
0;5847;-1.0129248;-0.769684;
0;5887;-1.7086905;-0.65101296;
0;5928;-3.01128;-1.0355556;
0;5970;-4.16507;-1.2639959;
0;6012;-4.581249;-1.0363109;
0;6054;-4.392321;-0.9404315;
0;6096;-4.881259;-0.9892082;
0;6138;-4.4628463;-0.9039847;
0;6180;-4.2466636;-0.9391722;
0;6221;-3.6250238;-0.46994632;
0;6261;-3.7799575;-0.5676823;
0;6303;-3.382657;-0.5194122;
0;6344;-3.3550682;-0.41976002;
0;6386;-2.9164746;-0.61102146;
0;6429;-3.0065928;-0.8458657;
0;6470;-2.7214015;-0.5352504;
0;6512;-2.888445;-0.9324858;
0;6553;-2.85611;-0.937387;
0;6595;-3.0814803;-0.75124425;
0;6637;-3.016501;-0.5152663;
0;6677;-3.3265438;-0.60819846;
0;6719;-3.4839132;-0.91337365;
0;6761;-3.4501572;-0.87159306;
0;6803;-3.7754242;-0.76734805;
0;6844;-3.7028658;-1.0279521;
0;6887;-3.3323894;-1.0626835;
0;6929;-2.7701056;-0.42516902;
0;6970;-2.5148551;-0.06828269;
0;7011;-2.2411516;-0.3443103;
0;7051;-2.7405915;-0.255103;
0;7092;-3.1269662;-0.11002573;
0;7133;-4.0644555;-0.1913859;
0;7173;-3.7819784;-0.3651689;
0;7215;-3.2488189;-0.30718726;
0;7257;-1.9331273;-0.19708383;
0;7298;-0.85420793;-0.44387567;
0;7339;0.21917301;-0.9150165;
0;7381;0.3709238;-0.4554217;
0;7422;0.5192282;-0.3813907;
0;7463;0.60701686;-0.37945768;
0;7505;0.8510195;-0.31465095;
0;7547;0.19252346;-0.20726685;
0;7587;0.7345899;-0.20291762;
0;7629;0.3854809;-0.33083254;
0;7671;-0.6469228;-0.6249242;
0;7713;-2.056907;-0.6374083;
0;7755;-3.627647;-0.78910196;
0;7797;-5.07894;-1.065978;
0;7840;-6.2273645;-1.2762986;
0;7881;-7.4531565;-1.4945235;
0;7923;-7.143431;-1.4315058;
0;7963;-6.5857677;-1.2926745;
0;8004;-7.056607;-1.3405068;
0;8047;-6.115215;-1.2543209;
0;8088;-5.5294914;-0.8313891;
0;8130;-4.583731;-0.4675482;
0;8172;-2.7313137;-0.5920894;
0;8213;-1.6270596;-0.32277033;
0;8256;-0.6449717;-0.03998371;
0;8299;0.40676033;-0.10918105;
0;8340;0.20780711;-0.19196111;
0;8382;0.98289245;-0.24754594;
0;8423;0.63422775;0.033697598;
0;8464;0.4851057;-0.0821245;
0;8506;1.189465;-0.19481005;
0;8548;0.610607;-0.05608756;
0;8588;0.540096;0.048895847;
0;8629;0.8048574;-0.22875379;
0;8670;0.70739853;-0.04293887;
0;8712;0.62881225;-0.17346694;
0;8752;0.14991608;0.005623993;
0;8792;-0.3207777;-0.38783476;
0;8834;0.5779794;-0.12918586;
0;8875;0.28280467;0.15796286;
0;8917;0.52926487;0.21761188;
0;8959;-0.17920375;0.06159238;
0;9002;-0.7127791;0.0042494405;
0;9044;-1.6603713;-0.007867972;
0;9086;-2.3292966;0.09266387;
0;9129;-2.3765495;-0.0970494;
0;9171;-1.3385688;0.19188717;
0;9214;-0.7055134;0.3574343;
0;9257;-0.52774143;-0.20844589;
0;9297;0.012429621;0.13718982;
0;9339;0.40315482;-0.090131044;
0;9380;0.11051805;0.009677897;
0;9422;-0.6603256;0.0057069855;
0;9464;-0.783596;-0.3499343;
0;9507;-1.1650267;-0.38156548;
0;9549;-1.2580831;-0.46863386;
0;9592;-1.5599079;-0.45869815;
0;9633;-0.91796917;-0.07292077;
0;9675;-1.56473;-0.36464933;
0;9717;-1.8530642;-0.67719495;
0;9760;-1.7620313;-0.6708701;
0;9801;-1.661401;-0.89402705;
0;9843;-1.3817642;-0.95000833;
0;9886;-0.4549929;-0.6912519;
0;9929;-0.566063;-0.5502064;
0;9971;-0.6920721;-0.54083693;
0;10014;-1.4378322;-0.48267394;
0;10056;-1.8269987;-0.5544028;
0;10097;-1.6196789;-0.17196412;
0;10140;-1.9095547;-0.059286334;
0;10182;-2.222432;0.09620596;
0;10227;-2.121518;-0.20950429;
0;10268;-3.40687;-0.48125395;
0;10309;-4.1062307;-0.33977064;
0;10351;-4.8233466;-0.39899218;
0;10393;-5.065319;-0.44745532;
0;10435;-4.832382;-0.43113253;
0;10477;-4.6747665;-0.510868;
0;10518;-5.520675;-0.22943266;
0;10559;-4.9132247;-0.6143666;
0;10603;-5.445128;-0.58977425;
0;10645;-5.0885043;-0.43862733;
0;10687;-4.6240535;-0.3745578;
0;10728;-3.2443504;-0.056369945;
0;10769;-2.195892;-0.15932064;
0;10811;-1.2474903;-0.17277898;
0;10854;-0.9594062;0.13956721;
0;10897;-0.6250667;0.34108824;
0;10940;-1.3320285;0Round;Timestamp;AccX;AccY;
0;11;5.619191;-1.42455;
0;26;3.1660323;-3.630807;
0;67;0.54647636;-1.1007341;
0;107;3.9683895;-1.4137762;
0;147;0.38834912;-0.11461075;
0;188;-0.40234375;0.75448185;
0;230;-0.7858967;0.9210162;
0;271;-1.785625;0.8952669;
0;311;-1.0361478;0.30530736;
0;352;-0.5756928;0.41192055;
0;392;-0.80207825;0.18078683;
0;432;-0.065023065;-0.014428721;
0;475;0.42344335;0.15858217;
0;516;0.43669042;0.15052377;
0;556;1.1446356;0.28162315;
0;598;0.3307497;0.25861394;
0;640;0.5699755;-0.45324;
0;681;-0.13784926;-0.19183668;
0;722;-0.85432696;-0.13510005;
0;773;-1.3504698;0.12625141;
0;814;-1.8528519;0.012136897;
0;856;-0.91025025;-0.12980248;
0;899;-0.054057516;0.39213216;
0;943;-0.1414847;0.40294233;
0;985;0.60723066;0.17220113;
0;1027;0.43580943;0.37642863;
0;1069;0.04260979;0.50732327;
0;1111;-0.3439088;0.6006233;
0;1153;-1.2865999;0.34234232;
0;1196;-1.8079994;0.10235082;
0;1238;-3.0425987;0.13138829;
0;1279;-4.355482;-0.099977374;
0;1320;-4.9507732;-0.2748448;
0;1363;-5.9785075;-0.632546;
0;1406;-6.0716662;-0.49566585;
0;1448;-5.649723;-0.38145024;
0;1491;-6.3920565;-0.41050193;
0;1533;-5.918483;-0.4828877;
0;1574;-6.1816545;-0.40418735;
0;1614;-5.738691;-0.33155805;
0;1656;-4.510575;-0.44005764;
0;1699;-3.741796;-0.2710242;
0;1743;-2.1196625;-0.18834001;
0;1785;-1.2706563;-0.19782484;
0;1828;-0.54486096;-0.26921034;
0;1870;-0.7361742;-0.21114448;
0;1912;-1.1437793;-0.28964394;
0;1954;-1.6365883;-0.24311124;
0;1996;-2.3345382;-0.29476404;
0;2038;-3.1489947;-0.0964897;
0;2080;-3.6550765;-0.24009389;
0;2124;-3.9873009;-0.21957731;
0;2167;-3.6900904;-0.08417795;
0;2210;-4.2843127;-0.11163221;
0;2251;-3.6117063;-0.2230196;
0;2293;-3.3143122;0.03836684;
0;2335;-3.5490255;0.039657224;
0;2377;-3.2290747;-0.022770824;
0;2420;-3.6130683;-0.3105816;
0;2463;-3.6160479;-0.3930481;
0;2506;-4.0206895;-0.50679344;
0;2548;-4.013078;-0.6591426;
0;2590;-4.1036825;-0.4350814;
0;2632;-3.8871589;-0.41485894;
0;2675;-4.173425;-0.08293939;
0;2716;-3.966459;-0.24422544;
0;2759;-4.235848;-0.06893047;
0;2802;-3.6435626;-0.28173718;
0;2843;-3.9880118;-0.37066853;
0;2885;-3.361997;-0.43816742;
0;2927;-3.8780558;-0.22130823;
0;2969;-3.9939134;-0.6199441;
0;3012;-4.6624494;-0.3071937;
0;3054;-4.5299983;-0.31344604;
0;3096;-4.6838474;-0.28087947;
0;3136;-3.9553475;-0.53763044;
0;3179;-4.149845;-0.4826752;
0;3221;-3.42236;-0.29859766;
0;3264;-3.447863;-0.41339752;
0;3307;-3.2363663;-0.7719746;
0;3349;-3.9405077;-0.63141894;
0;3390;-4.1609955;-0.8452724;
0;3433;-4.6293397;-0.65196395;
0;3475;-3.7105134;-0.75286114;
0;3518;-3.7726882;-0.5697591;
0;3562;-3.8872957;-0.5551062;
0;3605;-3.1763608;-0.625839;
0;3646;-2.6715586;-0.70163465;
0;3688;-2.4556973;-0.9057468;
0;3731;-2.3200567;-0.933104;
0;3773;-1.4890922;-0.38116658;
0;3814;-0.1561685;-0.529699;
0;3855;0.1995816;-0.10276675;
0;3896;0.23269618;-0.07626342;
0;3938;0.7033629;-0.04337419;
0;3979;0.28576377;-0.31238246;
0;4020;0.8586634;-0.7919665;
0;4061;0.90773416;-0.22105558;
0;4102;0.6303086;-0.23344508;
0;4146;0.031164821;-0.47114217;
0;4187;-1.6068864;-0.22446162;
0;4229;-2.0306497;-0.31664747;
0;4272;-2.327852;-0.10100214;
0;4315;-2.045734;-0.11112046;
0;4358;0.18823117;-0.18788391;
0;4400;1.914759;0.5084971;
0;4443;4.3725653;0.48072016;
0;4484;5.783104;-0.18599628;
0;4526;6.559422;-0.8603048;
0;4567;6.8720393;-1.410287;
0;4611;9.093657;-1.5192451;
0;4653;7.955057;-1.7953752;
0;4693;8.589789;-2.0285094;
0;4735;7.6490717;-1.8949474;
0;4776;7.635372;-1.4584367;
0;4816;7.3101754;-1.3208635;
0;4857;7.480985;-0.8164888;
0;4899;6.4613447;-0.5623536;
0;4943;6.3167562;-0.2751362;
0;4986;2.7057538;-0.2531324;
0;5028;1.7530893;-0.08489959;
0;5068;-0.96247816;-0.57917005;
0;5109;-1.8939341;-0.6845305;
0;5150;-2.2495933;-0.69312394;
0;5191;-2.3640873;-0.86853164;
0;5232;-2.4348292;-1.0974021;
0;5273;-3.6119874;-0.92860705;
0;5313;-4.5567117;-0.9295735;
0;5355;-5.0748873;-0.48070082;
0;5397;-5.9026875;-0.4023425;
0;5439;-5.821535;-0.5260416;
0;5482;-5.744198;-0.21103051;
0;5523;-4.959774;-0.13744116;
0;5564;-3.9126127;-0.082529955;
0;5606;-2.9829047;0.09310054;
0;5648;-1.4076699;0.31834206;
0;5691;-0.24554823;0.45759702;
0;5733;0.35855237;-0.009900675;
0;5774;-0.022568805;-0.43307713;
0;5815;-1.3820194;-0.22159319;
0;5858;-3.0605347;-0.46931538;
0;5900;-5.1052785;-0.85550475;
0;5943;-7.0158377;-0.89078426;
0;5985;-7.674476;-0.72755367;
0;6028;-8.10494;-0.64046067;
0;6070;-8.027636;-1.1051987;
0;6112;-8.018846;-0.87777287;
0;6153;-8.4241905;-0.6354818;
0;6197;-7.8376603;-0.5609933;
0;6240;-6.46314;-0.4670857;
0;6283;-5.6693683;-0.2596958;
0;6324;-4.170032;-0.387932;
0;6366;-3.0662963;-0.18521123;
0;6408;-1.9642639;0.0013668094;
0;6450;-1.7049917;-0.23761801;
0;6493;-1.35584;0.027690083;
0;6535;-1.6151949;0.13135332;
0;6576;-2.5503225;0.09029559;
0;6618;-3.736986;-0.13657185;
0;6662;-5.466764;-0.65014106;
0;6705;-6.8352776;-0.70410776;
0;6747;-7.758935;-0.71708536;
0;6790;-7.5763516;-0.7265547;
0;6833;-6.3541903;-0.23179059;
0;6875;-5.4007077;0.09378069;
0;6918;-4.116391;0.45677686;
0;6961;-1.6152712;0.57503986;
0;7004;-0.4697481;0.23126975;
0;7046;0.9434762;0.038870826;
0;7088;0.9373157;-5.439659E-5;
0;7129;1.3362186;0.05574035;
0;7172;0.5063555;-0.059110105;
0;7214;-0.32185423;-0.2425451;
0;7255;-0.51611626;0.08292379;
0;7298;-0.07292078;-0.037199546;
0;7340;0.47136617;-0.34083432;
0;7383;0.54128134;-0.33781952;
0;7425;-0.3288723;-0.60204965;
0;7467;-1.5604752;-0.8919256;
0;7510;-3.040264;-1.0254127;
0;7554;-4.0068974;-1.0534021;
0;7597;-4.0470896;-0.4756468;
0;7639;-3.4506314;-0.44096196;
0;7680;-1.7607657;-0.20236449;
0;7723;-1.1890684;-0.28236553;
0;7766;-0.632498;-0.29773995;
0;7808;-0.898305;-0.38400638;
0;7849;-1.0234097;-0.23809348;
0;7892;-1.3180794;-0.49084634;
0;7935;-1.0725765;-0.41107202;
0;7978;-1.0389423;-0.41756925;
0;8020;-0.38379252;-0.12923513;
0;8062;-0.15849927;-0.43607506;
0;8104;0.32702875;-0.22399268;
0;8147;0.91042626;-0.33123553;
0;8190;1.162784;-0.21885832;
0;8233;1.5342907;-0.47247267;
0;8274;1.7185264;-0.21077916;
0;8316;1.2918532;-0.11189787;
0;8359;0.4953263;-0.0067472914;
0;8402;-0.4098413;-0.2656074;
0;8445;-0.59880954;-0.1891976;
0;8487;-1.6302987;-0.15888795;
0;8530;-2.5051603;-0.017567838;
0;8571;-3.574731;-0.23154831;
0;8613;-4.9932823;-0.24217845;
0;8656;-6.3683157;-0.8569494;
0;8698;-7.5402813;-1.4520237;
0;8742;-8.51963;-1.7217213;
0;8785;-8.563683;-1.5319974;
0;8828;-8.93618;-1.4482434;
0;8870;-9.1044445;-1.3669468;
0;8913;-8.950674;-1.4632019;
0;8954;-8.611883;-1.3030417;
0;8994;-8.084408;-1.0084033;
0;9037;-7.205518;-1.0102793;
0;9079;-6.3683214;-0.75843334;
0;9122;-4.9329205;-0.11276716;
0;9165;-2.5370219;-0.1090774;
0;9208;-1.650991;0.037484515;
0;9248;-0.5335066;-0.10629714;
0;9289;0.31251213;-0.10767822;
0;9331;0.6680122;0.1267994;
0;9373;0.42962983;-0.13259314;
0;9415;0.08144699;-0.4406497;
0;9457;-0.7213647;-0.5421118;
0;9499;-1.678005;-0.56420493;
0;9541;-3.1431386;-0.66563076;
0;9583;-3.977808;-0.49135417;
0;9625;-3.6650124;-0.049337696;
0;9667;-2.9265478;0.23974407;
0;9709;-1.9677318;0.38042155;
0;9751;-0.68438786;0.15279101;
0;9793;-0.44226924;0.29124013;
0;9836;-0.7496157;0.4652279;
0;9879;-0.18084775;-0.04220555;
0;9921;-0.21735026;-0.049259916;
0;9963;0.5449258;-0.17019561;
0;10004;1.0974059;-0.21956564;
0;10046;1.8644885;-0.4065388;
0;10088;2.9303296;-0.45844042;
0;10130;2.9851744;-0.3589748;
0;10173;2.5902915;-0.32001588;
0;10216;2.7153823;-0.60330003;
0;10258;1.8251137;-0.6135401;
0;10300;1.4376107;-0.4591828;
0;10343;0.94136685;-0.21017414;
0;10384;0.06241507;-0.14992782;
0;10427;-1.0459733;0.11143403;
0;10469;-1.5250379;0.033508465;
0;10511;-2.076054;0.14126828;
0;10552;-1.7105626;0.11520802;
0;10594;-0.99963117;0.15180899;
0;10637;-0.4236312;0.039950002;
0;10680;-0.24623227;0.013621574;
0;10723;-1.5980325;-0.3328083;
0;10764;-3.38754;-0.6918932;
0;10804;-4.628602;-0.6607699;
0;10847;-5.4694095;-0.3464273;
0;10889;-5.451587;-0.38986883;
0;10932;-4.40504;-0.3840003;
0;10972;-1.1596915;-0.32082295Round;Timestamp;AccX;AccY;
0;11;2.0901382;-0.44891283;
0;25;1.8701708;1.5289971;
0;66;0.06254852;-0.2573767;
0;108;-0.92924947;0.81672204;
0;149;0.629846;1.3390273;
0;190;0.52524734;1.012742;
0;231;0.7622138;0.7106284;
0;272;0.7426417;0.2606078;
0;313;0.024215393;-0.34605932;
0;354;-9.6387987E-4;0.17569524;
0;396;-0.05221253;-0.17878391;
0;438;0.25479978;0.41388464;
0;479;-0.13023531;0.26735252;
0;521;-0.28773564;0.40362898;
0;565;-0.22531407;-0.11335535;
0;606;-0.321099;-0.22212958;
0;649;-0.79319596;-0.653012;
0;691;-0.6662734;-0.65387356;
0;732;-0.78951395;-1.0543284;
0;774;-0.29894492;-0.45081857;
0;816;-0.7320493;-0.5860469;
0;857;-0.14005955;-0.38963044;
0;899;0.057852104;-0.21902539;
0;941;-0.14492433;-0.06819976;
0;984;-0.20551006;-0.20678489;
0;1027;-0.6190657;-0.18419287;
0;1068;-1.3799981;-0.23322092;
0;1111;-2.3548667;-0.15812223;
0;1154;-3.7417805;-0.69452584;
0;1196;-4.6074457;-0.9065461;
0;1238;-5.4842033;-0.55472934;
0;1281;-5.90771;-0.5590577;
0;1325;-5.2789793;-0.5818299;
0;1367;-5.550244;-0.2760393;
0;1408;-5.8147745;-0.032878827;
0;1449;-5.3824086;-0.054636538;
0;1490;-5.6508894;-0.22411957;
0;1530;-5.8294225;-0.20155604;
0;1571;-5.616944;-0.13316324;
0;1612;-5.2420707;-0.06389462;
0;1653;-5.586757;-0.45577282;
0;1695;-5.294984;-0.12201233;
0;1737;-4.757762;0.20866217;
0;1780;-4.3785954;0.079905145;
0;1823;-4.881423;0.008430184;
0;1865;-5.000241;-0.23532362;
0;1905;-5.8713427;-0.59631425;
0;1948;-6.1758533;-0.4518421;
0;1990;-6.459043;-0.7898805;
0;2031;-4.969647;-0.48323876;
0;2072;-2.8798916;-0.31633908;
0;2114;-1.379888;-0.3428658;
0;2155;-0.57870376;-0.28514835;
0;2198;-0.64262927;-0.5064838;
0;2241;-2.4678297;-0.83609325;
0;2281;-3.663425;-0.59742194;
0;2324;-5.164544;-0.7489525;
0;2366;-6.217521;-0.8992456;
0;2409;-5.9358582;-0.9072962;
0;2452;-5.6713924;-0.64071715;
0;2494;-5.815547;-0.478006;
0;2537;-5.4593163;-0.3229115;
0;2578;-5.2778673;-0.39234072;
0;2618;-5.409682;-0.44055516;
0;2660;-5.3384147;-0.3263084;
0;2702;-5.912983;-0.41707045;
0;2742;-5.8250732;-0.4950012;
0;2784;-5.7992854;-0.8888215;
0;2825;-6.11944;-1.1185366;
0;2866;-5.7748384;-0.80357355;
0;2907;-5.1893115;-0.83127266;
0;2948;-5.301605;-0.5254871;
0;2989;-4.261254;-0.07592393;
0;3030;-3.9709666;-0.06368471;
0;3071;-3.4109874;0.2644829;
0;3113;-2.8153338;-0.03203405;
0;3153;-2.856614;-0.091293134;
0;3194;-3.1669915;-0.094925866;
0;3235;-3.131472;-0.38934535;
0;3277;-2.973723;0.032745406;
0;3319;-2.5898666;0.07100724;
0;3360;-1.1915792;0.22314015;
0;3401;-0.8089176;0.27226013;
0;3442;-0.13817188;0.08576891;
0;3482;0.1512129;-0.20831633;
0;3523;-0.27384207;-0.104757994;
0;3564;0.14520147;-0.35328335;
0;3607;-0.0227942;0.07070671;
0;3649;-0.51995623;0.039544474;
0;3690;0.19804895;-0.15453488;
0;3732;0.26220152;-0.82846;
0;3775;0.13507302;-0.8103752;
0;3815;0.5317305;-0.70958805;
0;3856;0.048180763;-0.26177388;
0;3896;0.22745177;-0.41845283;
0;3937;0.0023177837;0.099327;
0;3978;-0.011170358;-0.2869181;
0;4018;0.42123187;-0.34648558;
0;4059;1.0639635;-0.6352045;
0;4101;0.56667566;-0.29853672;
0;4142;0.62445;-0.044202074;
0;4183;0.36813182;-0.035493314;
0;4225;0.9243071;0.0036612507;
0;4266;2.4347763;0.22223319;
0;4306;4.561463;-0.44695398;
0;4346;7.5434246;-0.46163136;
0;4388;8.943987;-1.1921829;
0;4431;10.156853;-0.9477217;
0;4473;10.701717;-0.47964102;
0;4513;10.597693;-0.17207415;
0;4555;10.134129;0.3368142;
0;4596;8.591795;0.22062534;
0;4638;5.989642;-0.11816322;
0;4679;3.9729078;-0.2770006;
0;4720;1.4854183;-0.7091773;
0;4762;0.5154879;-0.7045521;
0;4806;0.28493842;-0.64580995;
0;4847;-0.07797087;-0.7190443;
0;4889;0.19286416;-0.24043979;
0;4932;0.24372916;-0.44199714;
0;4974;-0.79151684;-0.56286675;
0;5016;-0.37388548;-0.65200675;
0;5058;0.25898835;-0.16026776;
0;5107;0.7278257;-0.113300934;
0;5148;1.2440352;0.033235114;
0;5190;0.17791723;-0.1227728;
0;5231;-0.5174663;0.23509564;
0;5272;-1.3191961;0.38626713;
0;5314;-2.885767;0.07849957;
0;5356;-3.1889458;-0.39830682;
0;5398;-2.9642236;-0.46410075;
0;5440;-2.9386752;-0.71528584;
0;5482;-3.0943995;-0.8206074;
0;5524;-3.542176;-0.9507352;
0;5565;-3.6040432;-0.79038584;
0;5606;-3.4660678;-0.5713812;
0;5649;-4.0401983;-0.55806017;
0;5691;-4.452031;-0.76259995;
0;5733;-4.5264883;-1.0545708;
0;5777;-5.3232136;-0.78700435;
0;5819;-6.4696884;-0.4672567;
0;5860;-6.933154;-0.2018216;
0;5901;-7.3356786;-0.77057785;
0;5945;-6.914751;-1.0556681;
0;5988;-7.230864;-1.3340238;
0;6030;-8.063526;-2.2539687;
0;6072;-7.4775867;-2.376972;
0;6114;-8.189798;-1.8585961;
0;6157;-8.696079;-1.4560283;
0;6199;-8.548504;-1.2697171;
0;6240;-8.910208;-1.4553494;
0;6281;-8.878168;-1.229376;
0;6323;-8.668053;-1.1919651;
0;6367;-9.017157;-1.5507545;
0;6410;-7.802388;-1.125328;
0;6452;-7.6196976;-1.0734121;
0;6494;-6.181984;-0.4732591;
0;6537;-4.5346336;-0.857031;
0;6579;-3.8008456;-0.59777576;
0;6620;-2.4166398;-0.655313;
0;6660;-1.013417;-0.19298069;
0;6703;-0.3270676;-0.03900164;
0;6743;0.4781135;-0.025766145;
0;6784;0.82484263;-0.081590734;
0;6826;1.0824512;0.46318606;
0;6868;0.63454366;-0.07882079;
0;6911;-0.5499318;0.125864;
0;6952;-1.2326058;-0.13413493;
0;6993;-2.1265552;0.30522317;
0;7035;-2.6551752;0.35672444;
0;7078;-2.755786;-0.31137186;
0;7120;-2.4947364;-0.03608018;
0;7162;-2.0847642;-0.1402331;
0;7203;-1.9423262;-0.23675264;
0;7245;-1.1508206;-0.29836962;
0;7288;-0.31565118;-0.24518937;
0;7330;0.18776862;-0.04826359;
0;7372;0.37017632;-0.27399483;
0;7412;0.7245946;-0.8986716;
0;7454;0.4521116;-0.77526915;
0;7496;0.29886323;-1.0228022;
0;7538;-0.38059515;-1.1761193;
0;7581;0.36495638;-1.1164196;
0;7623;0.53271896;-0.7907732;
0;7664;0.47886884;-0.39411825;
0;7707;0.28082508;0.12690176;
0;7749;0.42971906;0.5199771;
0;7793;-0.48668367;0.79365975;
0;7835;-0.34878775;0.57746774;
0;7878;-0.5225384;0.65980595;
0;7920;0.075574115;0.6739159;
0;7962;0.011713205;0.47988454;
0;8004;0.17645578;0.73318666;
0;8046;0.57493484;0.8139922;
0;8089;0.54806477;0.89609605;
0;8130;0.15616328;0.78953594;
0;8172;0.45924357;0.33187547;
0;8214;0.2034604;0.41414896;
0;8256;0.08815916;0.31435427;
0;8298;-0.028661752;-0.05146108;
0;8341;-0.7207091;-0.25070193;
0;8381;-0.94281536;-0.16951936;
0;8425;-1.5546414;-0.14959612;
0;8467;-1.7029045;-0.046088394;
0;8508;-1.959606;0.015173654;
0;8550;-1.8646308;-0.08642055;
0;8591;-1.8276478;0.01074803;
0;8633;-1.7603914;-0.19549535;
0;8675;-2.760622;-0.32594952;
0;8716;-3.4346428;-0.32313043;
0;8757;-4.3197374;-0.7231837;
0;8798;-5.511639;-0.93923837;
0;8840;-6.6253257;-1.0949534;
0;8883;-6.684097;-1.3075205;
0;8924;-7.2521977;-1.1739013;
0;8966;-7.3568273;-1.000104;
0;9009;-7.6635723;-0.6372062;
0;9050;-7.410475;-0.54821;
0;9090;-7.3000684;-0.54599196;
0;9132;-7.489771;-0.83277786;
0;9173;-7.331858;-0.9557904;
0;9214;-7.44931;-1.230551;
0;9255;-7.759675;-1.0396174;
0;9298;-7.41829;-0.46981025;
0;9340;-6.631327;-0.39503163;
0;9382;-5.294587;-0.14725116;
0;9423;-3.8453977;-0.19234587;
0;9464;-2.362591;-0.3004801;
0;9505;-0.7616762;-0.24527484;
0;9547;-0.053655747;0.016246382;
0;9588;0.36938852;-0.075011835;
0;9629;0.83007157;0.20598817;
0;9670;1.28771;-0.0740518;
0;9711;1.4386446;-0.09776063;
0;9754;0.72061324;-0.50180036;
0;9796;-0.8202071;-0.63020104;
0;9839;-2.263307;-0.7071873;
0;9881;-3.1527143;-0.2959132;
0;9923;-3.3917496;-0.43439862;
0;9965;-2.989017;-0.1609945;
0;10007;-1.2580441;0.01998278;
0;10049;-0.36567283;0.07678418;
0;10092;0.09377289;-0.101234056;
0;10136;0.80099255;0.22828221;
0;10178;0.59888726;-0.020300196;
0;10220;1.3072559;-0.0061759166;
0;10263;2.065675;-0.12331823;
0;10303;2.3070102;0.10873276;
0;10345;2.390565;0.09411755;
0;10386;1.4484428;0.17530274;
0;10428;0.6441465;0.25252348;
0;10470;0.35900456;0.554224;
0;10512;-0.15184787;0.13332778;
0;10555;0.036043853;-0.10281334;
0;10598;-0.27431616;-0.30943504;
0;10640;-1.1359619;-0.3244558;
0;10683;-1.2950546;-0.41901514;
0;10726;-1.9586279;-0.30649793;
0;10768;-2.104191;-0.055060163;
0;10810;-1.695381;-0.049910277;
0;10854;-0.84860826;-0.12819864;
0;10896;-0.087418064;0.1573Round;Timestamp;AccX;AccY;
0;11;4.173094;-4.280833;
0;27;-0.12210426;-1.460463;
0;68;2.054225;-1.8902222;
0;108;-0.85083944;0.7592613;
0;149;0.07526968;-0.065675996;
0;190;0.63811046;-0.24674271;
0;231;0.6280194;-0.27838814;
0;271;1.1921273;-0.7383599;
0;313;1.0970614;-0.35820916;
0;357;0.30834293;-0.51143414;
0;399;0.12071159;-0.4333842;
0;441;-0.5285666;-0.4586179;
0;481;-0.37407324;-0.008866863;
0;527;-0.23509687;0.12357345;
0;571;-0.055048496;0.12475242;
0;613;0.246297;0.03432988;
0;654;0.2579739;0.09534574;
0;694;0.42662135;-0.1718604;
0;735;0.40212476;-0.3448907;
0;778;0.33427355;-0.69967425;
0;819;0.0636705;-0.44435632;
0;861;0.7347855;-0.25242504;
0;905;0.6975822;-0.37871528;
0;948;0.91432977;0.055558935;
0;989;0.13656665;0.11660848;
0;1031;-1.132548;-0.73897654;
0;1073;-3.1362994;-1.006995;
0;1115;-5.1036224;-1.427307;
0;1157;-6.984132;-1.4908066;
0;1201;-7.78028;-1.5350928;
0;1244;-8.370008;-1.4849219;
0;1287;-8.01476;-0.6277059;
0;1330;-7.7493415;-0.2561213;
0;1372;-7.4955325;-0.80130744;
0;1414;-6.695878;-0.43187103;
0;1457;-6.125126;-0.4876671;
0;1499;-5.4411635;-0.9005671;
0;1541;-4.071002;-1.2407926;
0;1581;-3.7135303;-1.4882399;
0;1623;-3.2398772;-1.2094553;
0;1665;-2.7457747;-1.0781265;
0;1707;-2.7808418;-0.95027655;
0;1750;-2.1875594;-0.6983101;
0;1792;-1.485159;-0.38970163;
0;1835;-0.98385096;-0.25568852;
0;1877;-0.029117733;-0.06449962;
0;1918;-0.44075075;-0.26406956;
0;1959;-0.18167953;-0.103235684;
0;2001;-0.48738068;-0.36546814;
0;2044;-1.3269887;0.03192271;
0;2085;-2.2073646;-0.06684588;
0;2127;-2.388903;-0.034844186;
0;2169;-3.310318;0.33416474;
0;2211;-4.240092;0.02590868;
0;2255;-4.9752264;-0.21641481;
0;2297;-4.950957;-0.20020218;
0;2339;-5.074889;-0.509461;
0;2381;-5.3072076;-0.4482547;
0;2423;-5.393442;-0.80496883;
0;2466;-5.3081446;-0.7724953;
0;2508;-5.8874087;-0.6005805;
0;2549;-6.3455734;-0.9050964;
0;2590;-6.8524766;-0.68371564;
0;2632;-7.013365;-0.7415534;
0;2674;-7.0492363;-0.8626238;
0;2716;-6.829693;-0.9833691;
0;2758;-6.103664;-0.88223994;
0;2799;-6.4206376;-0.8104903;
0;2841;-6.4632616;-0.7753456;
0;2881;-6.3897166;-0.6022518;
0;2923;-6.2409663;-0.45399925;
0;2965;-6.07032;-0.73722106;
0;3009;-5.5232816;-0.5712736;
0;3050;-5.0676527;-0.35198268;
0;3091;-3.910567;-0.27235472;
0;3135;-3.3389335;-0.49851474;
0;3177;-2.4085245;-0.44283924;
0;3220;-1.5456527;-0.21259035;
0;3264;-1.0135233;-0.33177185;
0;3306;-0.85762554;-0.8859414;
0;3348;-0.59176034;-0.9122906;
0;3390;-1.263492;-1.224323;
0;3433;-0.40277517;-1.1588064;
0;3475;0.23720089;-1.0477235;
0;3516;0.8678463;-0.3534078;
0;3558;1.1901851;-0.31793;
0;3599;0.9460518;-0.16188852;
0;3640;0.9069011;-0.5194745;
0;3682;0.8478597;-0.5585863;
0;3726;-0.36077437;-0.7278283;
0;3769;-0.6180098;-0.51476514;
0;3810;-1.0539191;-0.26224545;
0;3850;-0.68807006;0.226265;
0;3891;-0.34614095;0.17160778;
0;3934;0.7583827;0.23948236;
0;3975;2.789999;-0.13391724;
0;4016;4.9586935;-0.29230508;
0;4057;6.376973;-0.63456446;
0;4099;7.149682;-1.200959;
0;4140;7.7542467;-1.3535478;
0;4185;7.758564;-1.4630828;
0;4227;7.1767125;-0.9093315;
0;4268;6.5397186;-0.8544825;
0;4310;5.4132576;-0.8043559;
0;4352;3.9228997;-0.54711133;
0;4395;1.9293379;-0.30017823;
0;4437;0.44739825;-0.26386487;
0;4479;0.36866948;-0.30773655;
0;4520;0.7465803;-0.09955376;
0;4564;1.8128538;-0.15782166;
0;4609;3.0039537;-0.46584454;
0;4651;4.1944213;-0.53625447;
0;4694;3.384633;-0.32247624;
0;4736;1.9423207;-0.34400713;
0;4777;1.8693819;-0.30702916;
0;4818;1.4781785;-0.313082;
0;4861;0.97009087;-0.25431263;
0;4907;0.82923055;-0.7493126;
0;4948;0.36065373;-0.62557846;
0;4991;1.1022551;-0.41086987;
0;5033;1.0014603;-0.09434685;
0;5075;1.5906788;0.085404836;
0;5116;2.1976595;0.2824316;
0;5158;1.6007197;0.27036467;
0;5201;0.625427;-0.32405674;
0;5245;-0.7398939;-0.48603067;
0;5285;-2.9816825;-0.22617568;
0;5326;-3.7776852;-0.34474432;
0;5369;-4.3021398;-0.34441006;
0;5411;-4.694002;-0.35012352;
0;5453;-5.461854;-0.5984467;
0;5496;-5.9589;-0.5971344;
0;5539;-5.996768;-1.0170006;
0;5582;-5.634198;-1.119437;
0;5625;-5.2824564;-0.7692616;
0;5669;-3.8609226;-0.7885889;
0;5712;-3.0000825;-0.6917623;
0;5753;-2.1193528;-0.3369333;
0;5795;-1.1672652;-0.4502045;
0;5837;-0.96037537;-0.16426447;
0;5879;-0.072127864;-0.47253606;
0;5920;0.11450973;-0.83372366;
0;5962;-0.05950644;-0.71943945;
0;6005;-0.48758537;-0.6677659;
0;6048;-2.1128933;-0.45090932;
0;6090;-3.7858977;-0.10460896;
0;6133;-5.387264;-0.2635513;
0;6176;-6.3033724;-0.15871301;
0;6217;-6.884384;-1.0087595;
0;6258;-7.1938767;-1.0603139;
0;6298;-7.613205;-0.903407;
0;6339;-7.6190147;-1.2327561;
0;6381;-7.856159;-1.2858342;
0;6424;-8.676131;-1.2008206;
0;6467;-8.969047;-1.0647746;
0;6510;-8.527186;-1.2316433;
0;6551;-8.731055;-1.7719812;
0;6593;-8.091646;-1.5050329;
0;6634;-8.125568;-1.2207552;
0;6674;-7.420561;-1.5081643;
0;6717;-7.604097;-1.3995366;
0;6759;-7.487541;-1.1725796;
0;6801;-7.2706747;-1.301027;
0;6843;-6.4251533;-1.2433511;
0;6885;-5.1978326;-0.7571805;
0;6928;-3.5381055;-0.24954754;
0;6970;-2.1945734;0.06291909;
0;7013;-0.7498541;0.15438849;
0;7056;-0.010363241;0.22886786;
0;7098;0.63368344;0.21855639;
0;7141;0.90049195;-0.48784706;
0;7184;1.6791271;-0.21925725;
0;7226;1.4821093;-0.42292508;
0;7267;0.8575713;-0.43080866;
0;7309;0.23616569;-0.7078028;
0;7350;-0.14397599;-0.44381094;
0;7392;-0.9917773;-0.6120671;
0;7436;-1.1430228;-0.44109154;
0;7479;-0.9674609;-0.5906333;
0;7521;-1.0118053;-0.4844463;
0;7563;-1.03429;-0.7957041;
0;7606;-0.8267912;-0.85773575;
0;7648;-0.12656495;-0.60728;
0;7690;-0.21297517;-0.4294211;
0;7731;-0.24524632;-0.44825464;
0;7773;0.4234977;-0.24949442;
0;7816;-0.59368163;-0.35196707;
0;7857;-0.6824084;-0.46234778;
0;7899;-0.34225813;-0.25049722;
0;7941;-0.8014966;-0.37738085;
0;7984;-0.83276635;-0.35263816;
0;8026;-1.4057748;-0.58520615;
0;8068;-1.3823615;-0.5124265;
0;8110;-1.5288144;-0.5012756;
0;8152;-2.2449007;-0.54834217;
0;8194;-1.7033994;-0.13268124;
0;8237;-0.9797053;-0.32760403;
0;8279;-1.0806931;-0.571841;
0;8321;-0.6466236;-0.94501275;
0;8363;-0.30470884;-1.2046643;
0;8405;0.087111086;-1.0491047;
0;8447;0.7871522;-0.6776485;
0;8490;0.7339965;0.064758725;
0;8533;0.6639026;0.5520825;
0;8575;0.5413151;0.5250803;
0;8617;0.02430479;0.5368609;
0;8659;-0.731505;0.3039224;
0;8701;-1.6508565;-0.10451955;
0;8742;-2.4615674;-0.6654844;
0;8785;-3.0714695;-0.9530425;
0;8828;-3.3741677;-0.792232;
0;8871;-3.500433;-0.6652111;
0;8913;-3.5295198;-0.41490045;
0;8953;-3.2963443;-0.32376134;
0;8996;-3.388964;-0.117389776;
0;9039;-3.5372427;-0.20743403;
0;9080;-3.8811982;-0.64761215;
0;9122;-4.6682816;-0.6508394;
0;9165;-4.6417336;-0.6443046;
0;9208;-5.618545;-0.41947377;
0;9251;-6.3121285;-0.6175822;
0;9294;-7.3743405;-0.92912644;
0;9336;-7.771492;-0.92520344;
0;9378;-7.463587;-0.7674556;
0;9420;-7.1700583;-0.7342089;
0;9462;-6.666333;-0.5306421;
0;9504;-6.145559;-0.7169041;
0;9546;-5.0300336;-0.48526895;
0;9590;-3.405427;-0.2994281;
0;9631;-2.4930015;-0.7368971;
0;9673;-1.0075197;-0.5312886;
0;9715;0.3257397;-0.10511039;
0;9760;0.4727123;-0.25077832;
0;9802;0.36225125;-0.15385209;
0;9844;0.18523969;-0.4463437;
0;9885;0.18023746;0.37267277;
0;9927;0.6141425;0.39205828;
0;9969;0.4289002;-0.2635306;
0;10011;0.23076442;-0.39451477;
0;10052;0.7578218;-0.48867366;
0;10093;0.5685542;-0.63223255;
0;10136;0.6082646;-0.36117983;
0;10178;0.6052472;0.004553925;
0;10220;0.77413434;0.7771569;
0;10261;1.6438905;0.85042614;
0;10303;1.2827572;0.71697927;
0;10345;1.0333078;0.69799006;
0;10386;0.97771007;0.8255902;
0;10429;0.6549218;0.75220555;
0;10471;0.060178947;0.80200434;
0;10512;-0.17900808;0.7066509;
0;10554;0.21808478;0.31248996;
0;10597;0.54682505;0.041706815;
0;10639;-0.24359576;-0.41724405;
0;10681;-1.1338552;-0.56287706;
0;10724;-1.9242398;-0.6862419;
0;10765;-2.4122295;-0.49764153;
0;10807;-1.9406691;-0.060606472;
0;10848;-1.8342215;0.27816272;
0;10890;-1.2326512;0.45649058;
0;10932;-0.48739874;0.7272854;
0;10973;-0.3692538;0.3547681;
0;11015;-0.11433343;0.32584593;
0;11058;0