Round;Timestamp;AccX;AccY;AccZ;Acc Vector a;
0;07:01:03:226;3.739743;1.9201498;11.932701;12.651561631622794;
0;07:01:03:236;0.35194764;-0.49200845;13.808558;13.821802381358806;
0;07:01:03:247;-1.471237;-0.33997664;10.115502;10.227585638634636;
0;07:01:03:257;-1.9776106;0.5446809;6.9491706;7.245591500450895;
0;07:01:03:267;-3.8355112;0.2753332;10.809821;11.47341233782819;
0;07:01:03:277;2.4540567;0.2621651;7.7488337;8.132376271622102;
0;07:01:03:287;-0.6847417;-0.2837129;10.921151;10.946273685267212;
0;07:01:03:297;1.3491327;0.62249243;10.029311;10.138774026948784;
0;07:01:03:307;-2.4540567;-0.0047884034;8.84059;9.17488072289209;
0;07:01:03:317;0.50278234;-0.23223756;8.5700445;8.587921052297132;
0;07:01:03:328;4.5382094;1.283292;7.72968;9.054840850189782;
0;07:01:03:337;4.086902;-4.1144357;10.213664;11.745224002343862;
0;07:01:03:347;-2.2230163;-0.93014735;9.883265;10.172801642099964;
0;07:01:03:358;-3.870227;-4.631583;11.717223;13.180422651029277;
0;07:01:03:368;0.7445967;0.7290344;9.28232;9.34063076658508;
0;07:01:03:379;4.0737343;-1.5382746;11.786655;12.565303053261887;
0;07:01:03:390;-1.9213469;-0.074220255;9.940725;10.12497438027237;
0;07:01:03:401;-0.59615624;-2.5390508;10.292673;10.617970733159627;
0;07:01:03:412;-3.0334535;-1.7369933;10.548853;11.112933183257555;
0;07:01:03:423;1.3946224;-3.654749;9.459491;10.236411787425235;
0;07:01:03:433;-1.6927006;2.0135236;4.3143516;5.053032959504989;
0;07:01:03:443;-1.1456255;-3.834314;15.9801;16.473555209493618;
0;07:01:03:453;0.25977087;-0.037110128;12.779052;12.781746031595642;
0;07:01:03:463;-0.82599956;-2.1392193;11.839328;12.059361815513329;
0;07:01:03:473;3.2106245;1.271321;7.21373;7.997641215674059;
0;07:01:03:484;-1.2389994;0.7098808;7.5465236;7.680434290607139;
0;07:01:03:495;0.25139117;-0.18076223;9.00579;9.011110864846502;
0;07:01:03:505;0.2669535;-4.2521024;12.200851;12.923328543927717;
0;07:01:03:514;-2.932897;-3.691859;16.60738;17.263741589865177;
0;07:01:03:524;0.089782566;-1.3227965;10.9426985;11.02272668354065;
0;07:01:03:534;0.02633622;1.3299791;7.1287355;7.251786636672933;
0;07:01:03:544;0.78769237;-0.90261406;8.6334915;8.716211968178536;
0;07:01:03:554;0.20470424;0.91697925;6.5098343;6.577286401787048;
0;07:01:03:565;-3.1495724;-4.0521865;10.969035;12.110316243661202;
0;07:01:03:576;2.4289176;-0.700304;11.420342;11.696763880591943;
0;07:01:03:587;1.0869676;-0.7146692;10.638636;10.71787376269958;
0;07:01:03:597;2.0614076;1.0570401;10.104729;10.366883929593692;
0;07:01:03:608;-2.3654714;-1.6783354;8.639477;9.113331898835893;
0;07:01:03:620;-3.4644098;-0.81402856;9.651027;10.286257744615963;
0;07:01:03:630;1.2150574;-2.0350714;12.140997;12.370193318588752;
0;07:01:03:644;2.1823149;-2.6060886;9.949105;10.513747888042603;
0;07:01:03:655;-0.60094464;0.061052144;9.436746;9.456057864378403;
0;07:01:03:666;-0.12689269;0.49081135;11.344925;11.356246076550644;
0;07:01:03:677;2.9053638;-1.234211;12.974179;13.352668158395991;
0;07:01:03:688;-0.6584055;-0.19752164;9.80665;9.83071200674551;
0;07:01:03:698;-0.8750807;-1.2856863;10.751163;10.863068096726684;
0;07:01:03:709;-0.79846627;-0.79726917;9.2069025;9.275787698452236;
0;07:01:03:719;-0.40701428;-2.4145525;10.857705;11.13038556331657;
0;07:01:03:730;0.7637503;-2.943671;10.21127;10.65450865537684;
0;07:01:03:740;-3.4500446;-0.58418524;7.499837;8.275967507403212;
0;07:01:03:751;-3.1627405;-1.7764976;10.013748;10.650540878100687;
0;07:01:03:760;2.207454;-1.9213469;12.5982895;12.933728244166309;
0;07:01:03:770;1.2521675;0.45609543;9.999383;10.08779514263864;
0;07:01:03:780;0.7757214;-1.2330139;11.124659;11.219629959831424;
0;07:01:03:791;-1.2856863;0.20111294;8.544906;8.643427968456638;
0;07:01:03:801;-1.578976;0.07062895;7.475895;7.641148960737878;
0;07:01:03:812;2.7712884;-1.2509704;10.473435;10.905861396752472;
0;07:01:03:822;2.1571758;-3.5098996;11.019313;11.764270314400015;
0;07:01:03:832;1.3790601;-2.0111294;11.990162;12.235620895613424;
0;07:01:03:843;-0.92895025;1.1228806;7.878121;8.01177874337606;
0;07:01:03:854;0.40462008;0.9636662;8.512584;8.576505692304805;
0;07:01:03:863;0.4321534;-1.3024458;10.9834;11.068794485613422;
0;07:01:03:873;-0.12928689;-0.28491;11.403583;11.407873921215282;
0;07:01:03:883;-0.36631286;0.30526072;8.154651;8.168580071127293;
0;07:01:03:893;-0.36272156;-0.6967127;11.548432;11.575113870213046;
0;07:01:03:903;0.15083471;-0.23582886;11.235989;11.239475328682495;
0;07:01:03:913;-1.5059528;-0.62488663;8.3868885;8.54390284102271;
0;07:01:03:924;-0.41299978;-1.7788919;10.26514;10.426318363834064;
0;07:01:03:935;1.7836803;-2.4289176;10.969035;11.375451382913957;
0;07:01:03:945;-0.24540567;0.6619968;6.9958572;7.031392413922327;
0;07:01:03:955;0.10295067;-1.9428947;11.100717;11.269931007316236;
0;07:01:03:966;0.4141969;-0.20829555;7.338228;7.352859366466702;
0;07:01:03:975;-2.6755204;-1.4257472;11.235989;11.637809013418828;
0;07:01:03:985;-0.9804256;-2.0590134;11.042058;11.27509712803318;
0;07:01:03:995;0.4309563;-2.6779146;12.41633;12.709138504953273;
0;07:01:04:005;0.33159694;2.3451207;9.818622;10.100241826250027;
0;07:01:04:015;-0.2681506;-0.58538234;11.760319;11.77793194012144;
0;07:01:04:026;2.8107927;-1.1779473;10.751163;11.174775628689934;
0;07:01:04:038;-0.33279404;-2.2002714;11.678916;11.889029798138099;
0;07:01:04:048;-0.89184016;-1.3850456;8.572439;8.729286745348645;
0;07:01:04:059;-1.4185646;-2.0949266;10.147824;10.458459698849584;
0;07:01:04:069;1.5897499;-0.8511387;8.2037325;8.399581135796948;
0;07:01:04:080;-0.5710171;-2.1296425;11.5077305;11.717051309174845;
0;07:01:04:091;2.124854;-1.1348516;10.70687;10.974514307906004;
0;07:01:04:102;-1.2605472;-0.18914193;9.6845455;9.768069225369032;
0;07:01:04:112;-2.8790276;1.2737153;7.8589673;8.466080248291284;
0;07:01:04:122;0.15203181;-1.9261353;11.978191;12.133020009896418;
0;07:01:04:132;2.0853498;-1.2509704;11.2371855;11.497301531441316;
0;07:01:04:142;1.0486604;-3.027468;13.42788;13.804825666045982;
0;07:01:04:152;0.2645593;-1.2521675;11.3640785;11.435916978692818;
0;07:01:04:162;0.9744401;-0.7170634;9.676167;9.751508155968386;
0;07:01:04:172;-0.78649527;-1.5167267;12.01171;12.132609388391645;
0;07:01:04:182;-0.5542577;1.1575965;7.1754227;7.289301926584211;
0;07:01:04:192;-0.25019407;-3.4835634;13.351266;13.800511469553912;
0;07:01:04:202;2.6755204;-1.1779473;10.682928;11.07569055750853;
0;07:01:04:212;-0.34117374;-0.8367735;10.653001;10.691258890448667;
0;07:01:04:223;-2.0805612;-1.5454572;9.036914;9.401222279399615;
0;07:01:04:233;-0.33758244;-0.62368953;9.736021;9.761816444839269;
0;07:01:04:243;-1.2366052;-0.45010993;11.052833;11.130898272929489;
0;07:01:04:254;-0.46088383;-0.51714754;8.920795;8.947650400684589;
0;07:01:04:264;1.0175357;-2.743755;12.665327;12.999002858580454;
0;07:01:04:274;0.89782566;0.17477672;9.132683;9.178372994314074;
0;07:01:04:285;-1.5598224;-2.0841527;11.793838;12.077720724152591;
0;07:01:04:296;-0.17238252;1.5598224;6.087258;6.286292030981324;
0;07:01:04:307;0.2789245;-3.70383;14.075512;14.55734174670873;
0;07:01:04:318;3.0693667;1.186327;9.038112;9.618515802993796;
0;07:01:04:329;-1.4927847;-0.5363012;10.647015;10.764522235791226;
0;07:01:04:340;1.6460136;-1.3204023;11.027693;11.22777039594081;
0;07:01:04:351;1.5406688;1.4053963;6.8091097;7.121290345441761;
0;07:01:04:360;0.7206547;-0.7146692;10.400413;10.449817082752611;
0;07:01:04:370;-0.31004912;-0.60094464;9.782708;9.806051480075087;
0;07:01:04:380;0.45489833;-1.7836803;9.916783;10.086180692144566;
0;07:01:04:391;-0.8643068;-1.1300632;11.828553;11.913804428557405;
0;07:01:04:402;0.17477672;-0.37229836;10.068815;10.077211607712774;
0;07:01:04:412;-1.2306197;-1.3251907;10.739192;10.890399421533944;
0;07:01:04:423;-0.712275;-2.2828712;10.030508;10.311640293237026;
0;07:01:04:434;0.88944596;-1.8854338;10.269928;10.479379660613937;
0;07:01:04:444;1.2964603;-1.5658079;10.839748;11.02872185198614;
0;07:01:04:454;0.1448492;-0.035913024;10.779893;10.780925889602868;
0;07:01:04:465;0.2765303;0.50158525;7.7823524;7.803400951267979;
0;07:01:04:476;0.11851298;-2.195483;11.769896;11.973497370535751;
0;07:01:04:487;0.82599956;-1.2856863;9.740809;9.859951093138445;
0;07:01:04:497;0.12569559;-1.5921441;11.337742;11.449677202097297;
0;07:01:04:507;0.14604631;0.21787235;8.823831;8.827727884458763;
0;07:01:04:518;0.6835446;-1.1420342;10.261548;10.347504363739944;
0;07:01:04:528;0.4345476;-1.364695;11.950658;12.03617238995775;
0;07:01:04:538;-0.2825158;-1.6112977;9.03452;9.181429356017027;
0;07:01:04:549;-0.47764325;-1.2018893;10.9822035;11.058095626365144;
0;07:01:04:559;0.5602432;-0.49799395;9.533711;9.563133468090657;
0;07:01:04:569;-1.0115502;-1.5873557;9.457097;9.642593751569777;
0;07:01:04:580;0.4225766;-0.5542577;9.168595;9.195048235237259;
0;07:01:04:590;-0.32202014;0.20111294;10.753557;10.76025717445681;
0;07:01:04:601;-0.5650316;-0.1436521;9.92636;9.943466218918699;
0;07:01:04:611;1.0043676;-0.44891283;10.362105;10.420340864057401;
0;07:01:04:621;-0.20709845;-2.1380222;10.250774;10.473414233223261;
0;07:01:04:631;-0.91697925;-1.1563994;9.643845;9.75611841967144;
0;07:01:04:641;0.9900024;-0.38067806;9.012972;9.075168778292346;
0;07:01:04:651;1.6699557;-0.027533319;11.044453;11.170024499823631;
0;07:01:04:662;1.9524715;-0.40701428;8.965088;9.18425875210861;
0;07:01:04:672;-0.18435353;-1.6531962;11.344925;11.466227157804568;
0;07:01:04:683;-1.0749966;0.33399114;8.859743;8.930969413263295;
0;07:01:04:692;0.079008654;-1.3455414;10.011354;10.101680321238641;
0;07:01:04:703;-0.93852705;-1.2641385;9.534908;9.664023816363564;
0;07:01:04:712;-0.41060558;-1.400608;9.156625;9.272221036341689;
0;07:01:04:722;1.3239936;-0.2669535;10.036493;10.12696536733831;
0;07:01:04:733;1.2210429;-0.37828386;11.469423;11.54043833305067;
0;07:01:04:743;-0.30166942;-1.1719618;11.399991;11.464043173709348;
0;07:01:04:753;-0.90500826;-0.25977087;9.046491;9.09535690739782;
0;07:01:04:763;-3.3758245;-0.5805939;8.920795;9.555829283270795;
0;07:01:04:773;-0.81043726;-1.541866;10.269928;10.416601033321875;
0;07:01:04:784;1.4101849;-2.6264393;10.599131;11.01037559152747;
0;07:01:04:795;1.6783354;-1.1671734;10.469844;10.667555374634736;
0;07:01:04:806;-0.23822308;0.70509243;8.441956;8.474699175961756;
0;07:01:04:817;-0.16519992;-1.3072342;9.630676;9.72039486620685;
0;07:01:04:827;-1.1647792;-0.94211835;10.662578;10.767305151684528;
0;07:01:04:838;-0.19153613;-1.4413095;9.94312;10.048865517119449;
0;07:01:04:849;0.15083471;-1.532289;11.553221;11.655367002203521;
0;07:01:04:859;-1.6424223;-0.142455;8.529344;8.687205796783225;
0;07:01:04:869;-0.10654198;0.15203181;8.452729;8.454767487147045;
0;07:01:04:879;-0.50996494;-2.1679497;10.957064;11.181114036454122;
0;07:01:04:889;-0.17597382;-3.0214825;11.060015;11.466658315729457;
0;07:01:04:900;0.33877954;0.21188685;9.425972;9.434437640178972;
0;07:01:04:910;0.5686229;0.1388637;8.040926;8.06220238897783;
0;07:01:04:921;0.9516952;-1.115698;11.713632;11.805070104653392;
0;07:01:04:932;0.03232172;-1.5131354;12.064383;12.15894528984827;
0;07:01:04:943;-0.2765303;-0.2801216;9.975441;9.98320389686531;
0;07:01:04:953;1.6555905;0.08020575;9.445126;9.589463459873143;
0;07:01:04:964;-0.22146365;-2.2589293;10.645818;10.88509277640648;
0;07:01:04:974;-0.33758244;-0.7589619;10.594342;10.626856383668741;
0;07:01:04:985;1.0247183;-0.37349546;9.259575;9.32358705181087;
0;07:01:04:995;-0.9864111;-1.1851299;10.828975;10.938200661151416;
0;07:01:05:006;0.019153614;-0.7697359;11.925519;11.950350091506538;
0;07:01:05:017;-0.80325466;0.011971008;11.03727;11.066466574028135;
0;07:01:05:027;-0.5518635;0.008379706;9.822212;9.83770702100608;
0;07:01:05:038;-0.19752164;-1.5071499;10.551247;10.660174500144693;
0;07:01:05:048;-0.6847417;-2.0147207;9.950302;10.175287895909797;
0;07:01:05:059;0.6464345;-0.19153613;9.497798;9.521698114588151;
0;07:01:05:070;0.8319851;-0.62368953;9.123106;9.182170126390627;
0;07:01:05:081;-1.0666169;-3.2932243;10.70687;11.252558438467796;
0;07:01:05:091;2.086547;-1.0726024;10.710462;10.964403296506267;
0;07:01:05:101;0.8690952;0.78529817;10.42196;10.487576719237602;
0;07:01:05:112;-1.1875241;-0.12569559;9.431957;9.507251180662422;
0;07:01:05:122;-1.5729905;-2.6551697;10.000581;10.46593726789473;
0;07:01:05:132;1.6903064;-1.1839328;11.299435;11.486341907458574;
0;07:01:05:142;1.9393034;0.4309563;10.840945;11.021466203965616;
0;07:01:05:153;-1.1324574;-1.0486604;8.678981;8.815149220173518;
0;07:01:05:164;-0.06344634;-0.6464345;9.811439;9.832915819862784;
0;07:01:05:175;-2.086547;-5.1247888;10.09994;11.516333217918488;
0;07:01:05:184;-0.30765492;-1.5047557;11.87524;11.974150472622917;
0;07:01:05:195;0.39624038;-2.8455088;11.033679;11.401578934396131;
0;07:01:05:205;-0.2837129;-4.5801077;10.303447;11.279135719898516;
0;07:01:05:216;1.3072342;-0.7793127;11.62744;11.726617801543485;
0;07:01:05:227;1.22224;1.827973;9.066842;9.329682953283518;
0;07:01:05:237;-0.60693014;-0.5770026;9.004593;9.043450058060625;
0;07:01:05:248;-0.093373865;-1.460463;10.485406;10.587039769065635;
0;07:01:05:259;0.51475334;-1.484405;11.71004;11.814968275107507;
0;07:01:05:269;-0.44651863;-5.971139;8.376115;10.296270372991863;
0;07:01:05:280;0.4309563;-0.6452374;11.0935335;11.120635473083151;
0;07:01:05:291;1.1731589;1.9788077;10.861296;11.102239750520043;
0;07:01:05:301;-0.48003745;-0.8750807;9.221268;9.27512679103343;
0;07:01:05:312;1.0594343;-0.59017074;11.195287;11.260779070014289;
0;07:01:05:322;-0.010773907;-0.9959879;10.31063;10.358629294781197;
0;07:01:05:333;-1.033098;-4.1299977;8.734048;9.716365607577618;
0;07:01:05:343;-0.59855044;-3.8869865;10.5680065;11.276067076809323;
0;07:01:05:354;0.78410107;-0.80205756;11.050438;11.107217699954372;
0;07:01:05:364;-0.061052144;0.3878607;10.324995;10.332457679645252;
0;07:01:05:375;-0.5722142;-0.94690675;8.374918;8.447680851427695;
0;07:01:05:385;-0.10654198;-5.3378725;10.679337;11.939533479864147;
0;07:01:05:396;0.6572084;-1.541866;10.571598;10.703642137940237;
0;07:01:05:407;0.08379706;-1.1647792;10.439917;10.505026930965599;
0;07:01:05:417;0.19033903;-1.2366052;8.285135;8.379074244382316;
0;07:01:05:428;-0.16998832;-2.0099323;10.204087;10.40154428020599;
0;07:01:05:437;-0.4285621;-1.2366052;10.666168;10.746162261799958;
0;07:01:05:447;0.40821138;-0.48602295;9.941922;9.962162148982378;
0;07:01:05:457;0.1340753;-0.7062895;10.667366;10.691563240992068;
0;07:01:05:467;-0.0035913025;-0.39743748;9.982624;9.990533162381892;
0;07:01:05:477;0.17357962;-0.7074866;10.55005;10.575170016894786;
0;07:01:05:488;0.17836803;-0.2837129;9.910798;9.916462060008985;
0;07:01:05:498;-0.11372458;-0.37469256;10.307038;10.314473651099156;
0;07:01:05:509;-0.022744916;-0.29807812;10.177752;10.182140976879415;
0;07:01:05:519;0.12330139;-0.20231004;10.193314;10.196066408308486;
0;07:01:05:530;-0.021547815;-0.25617957;10.218452;10.2216859851926;
0;07:01:05:541;0.11492168;-0.2681506;10.195708;10.199881489383145;
0;07:01:05:552;0.1400608;-0.31603462;10.360908;10.366672344962605;
0;07:01:05:562;0.044292733;-0.24779987;10.275913;10.27899609009154;
0;07:01:05:573;0.0023942017;-0.17118542;10.268731;10.270158251589667;
0;07:01:05:583;0.08738836;-0.23582886;10.268731;10.271810633426067;
0;07:01:05:593;0.025139118;-0.22625206;10.248381;10.250908415942988;
0;07:01:05:604;0.016759412;-0.2633622;10.212467;10.215876277284929;
0;07:01:05:614;0.050278235;-0.31244332;10.25676;10.26164068418155;
0;07:01:05:625;0.061052144;-0.34955344;10.257957;10.264093154115818;
0;07:01:05:635;0.039504327;-0.37588966;10.281899;10.28884375360676;
0;07:01:05:646;0.088585466;-0.4165911;10.269928;10.278755604277249;
0;07:01:05:658;0.08499416;-0.4333505;10.237606;10.247126106612733;
0;07:01:05:668;0.07062895;-0.4369418;10.26514;10.274677622394808;
0;07:01:05:679;0.092176765;-0.45489833;10.250774;10.261277112689163;
0;07:01:05:689;0.07062895;-0.49440265;10.231621;10.243802313586677;
0;07:01:05:700;0.037110128;-0.5434838;10.279505;10.293928960785918;
0;07:01:05:711;0.050278235;-0.5614403;10.210073;10.225621704004038;
0;07:01:05:721;0.046686932;-0.60333884;10.230424;10.248305762226932;
0;07:01:05:732;0.038307227;-0.61650693;10.255563;10.274147803985716;
0;07:01:05:743;0.06823475;-0.63206923;10.260351;10.280027740084853;
0;07:01:05:753;0.08738836;-0.6512229;10.254366;10.275395265573463;
0;07:01:05:764;0.08379706;-0.6967127;10.241198;10.265211030228127;
0;07:01:05:774;0.031124622;-0.6847417;10.261548;10.284415919994178;
0;07:01:05:785;0.10534488;-0.7074866;10.225636;10.250622241974204;
0;07:01:05:795;0.11851298;-0.81881696;10.217256;10.250698531004371;
0;07:01:05:806;0.027533319;-0.92416185;10.262746;10.304309158378611;
0;07:01:05:817;0.07182605;-0.8702923;10.207679;10.244963362159583;
0;07:01:05:827;0.031124622;-0.6596026;10.178948;10.20034485776266;
0;07:01:05:837;0.08259996;-0.5363012;10.204087;10.218504736520552;
0;07:01:05:847;0.090979666;-0.56982;10.2495775;10.2658078251414;
0;07:01:05:858;0.11252748;-0.5722142;10.277111;10.293643612245276;
0;07:01:05:868;0.044292733;-0.5386954;10.29387;10.308050872049561;
0;07:01:05:879;0.06464344;-0.48722005;10.178948;10.190807343939392;
0;07:01:05:889;0.05746084;-0.51475334;10.204087;10.217224193833214;
0;07:01:05:900;0.06943185;-0.48961425;10.271125;10.283022278502356;
0;07:01:05:910;0.09935937;-0.48362875;10.290278;10.302116206277073;
0;07:01:05:920;0.10175357;-0.47644615;10.272323;10.283869540075134;
0;07:01:05:931;0.05626374;-0.45609543;10.237606;10.247915288546762;
0;07:01:05:941;0.05267244;-0.47524905;10.263943;10.275074504201637;
0;07:01:05:951;0.033518825;-0.46926352;10.269928;10.280697886011314;
0;07:01:05:962;0.05865794;-0.47285482;10.247183;10.258254658335106;
0;07:01:05:973;0.053869538;-0.44532153;10.311827;10.321578405162933;
0;07:01:05:984;0.053869538;-0.45968673;10.248381;10.2588262006259;
0;07:01:05:994;0.06464344;-0.50517654;10.266336;10.27896157626955;
0;07:01:06:005;0.06464344;-0.49440265;10.226832;10.23898020792316;
0;07:01:06:015;0.06703765;-0.5243302;10.245986;10.259612623490325;
0;07:01:06:026;0.079008654;-0.5434838;10.277111;10.29177493966378;
0;07:01:06:036;0.06464344;-0.557849;10.279505;10.29483350043884;
0;07:01:06:046;0.05626374;-0.5650316;10.234015;10.249755856467386;
0;07:01:06:057;0.075417355;-0.5746084;10.19451;10.210970002219694;
0;07:01:06:067;0.053869538;-0.5722142;10.198102;10.21428468534634;
0;07:01:06:078;0.046686932;-0.5734113;10.248381;10.264515716678952;
0;07:01:06:089;0.06584055;-0.59855044;10.250774;10.268445421509126;
0;07:01:06:099;0.053869538;-0.60094464;10.21965;10.237445493001072;
0;07:01:06:110;0.062249243;-0.60094464;10.230424;10.248248066862033;
0;07:01:06:120;0.05865794;-0.58657944;10.243592;10.260541008262019;
0;07:01:06:130;0.06344634;-0.58298814;10.248381;10.26514525431984;
0;07:01:06:140;0.06943185;-0.5614403;10.255563;10.271154020821301;
0;07:01:06:151;0.06943185;-0.5506664;10.251971;10.266984219614848;
0;07:01:06:161;0.075417355;-0.5410896;10.272323;10.286839968527067;
0;07:01:06:172;0.05267244;-0.521936;10.243592;10.2570158975245;
0;07:01:06:183;0.05267244;-0.5315128;10.232818;10.246747501065201;
0;07:01:06:193;0.061052144;-0.50517654;10.242394;10.255027096478669;
0;07:01:06:204;0.053869538;-0.5243302;10.286688;10.30018314828351;
0;07:01:06:215;0.05626374;-0.5291186;10.266336;10.280116798538895;
0;07:01:06:226;0.06464344;-0.5398925;10.225636;10.240082199243599;
0;07:01:06:237;0.04189853;-0.5327099;10.259154;10.273060978128747;
0;07:01:06:248;-0.50517654;-2.7497406;6.619968;7.186115164653846;
0;07:01:06:259;12.688072;20.580557;5.9292407;24.893822377813436;
0;07:01:06:269;-5.5629277;23.840263;15.539566;28.99624925232788;
0;07:01:06:280;-8.377312;0.019153614;-0.6691794;8.404017949778268;
0;07:01:06:290;-1.2641385;14.719552;9.706094;17.67686417608082;
0;07:01:06:301;-1.9668367;4.2078094;-0.47046062;4.668558531975314;
0;07:01:06:312;9.659407;7.9128366;7.264008;14.44586177295357;
0;07:01:06:322;8.224083;13.761871;16.097416;22.718967609858783;
0;07:01:06:332;2.6563668;11.857284;-5.1475334;13.196535892813404;
0;07:01:06:343;-6.6522894;15.8783455;15.247474;22.996962636994994;
0;07:01:06:354;2.7832594;6.0980315;-4.0043025;7.808134278237178;
0;07:01:06:365;-4.489128;7.20535;-3.1160536;9.043181355492122;
0;07:01:06:376;9.859323;7.9810715;18.131289;22.1279770739389;
0;07:01:06:385;2.146402;17.609354;11.976994;21.40431674664307;
0;07:01:06:395;-7.098808;7.48188;2.1667526;10.538805506735052;
0;07:01:06:405;6.564901;8.655039;25.40607;27.631070812017946;
0;07:01:06:416;3.1675289;10.278308;3.6595373;11.3608572096513;
0;07:01:06:426;-4.2305546;14.854824;14.984112;21.51945644330345;
0;07:01:06:437;6.4164605;-1.8914193;27.24841;28.057516696316203;
0;07:01:06:448;-0.36272156;14.680048;-3.41892;15.077280477482658;
0;07:01:06:459;-5.853823;6.314707;14.180857;16.590342716036545;
0;07:01:06:470;7.668628;14.040796;16.470911;22.961766848751125;
0;07:01:06:481;-2.7006595;6.8450227;10.680533;12.970030057309042;
0;07:01:06:491;0.20709845;8.651448;8.981848;12.472531464690531;
0;07:01:06:502;1.79206;8.380903;9.603143;12.871339147888262;
0;07:01:06:513;-5.6084175;9.272743;10.425551;15.037627265118937;
0;07:01:06:523;-4.465186;2.9831753;14.975732;15.909423511545809;
0;07:01:06:533;8.06008;9.050082;5.719748;13.40090971178881;
0;07:01:06:544;-8.528147;6.873753;3.930082;11.63715211407722;
0;07:01:06:553;8.747216;7.723695;20.231005;23.355144370238595;
0;07:01:06:564;0.59735334;16.170439;12.992135;20.751758914532402;
0;07:01:06:574;-1.1767502;7.261614;3.1615434;8.006943073991266;
0;07:01:06:584;-0.94451255;9.698911;8.583213;12.985857974127807;
0;07:01:06:594;-0.39264908;10.0664215;9.378088;13.763558655921804;
0;07:01:06:604;-5.1140146;7.0066314;6.9383965;11.107986985855254;
0;07:01:06:615;-5.3354783;6.9850836;15.774198;18.057796512658406;
0;07:01:06:625;-5.7365074;8.09719;16.281769;19.067459011731543;
0;07:01:06:635;-7.089231;3.8055837;4.509479;9.223614563325647;
0;07:01:06:645;2.183512;3.549404;8.395268;9.372647816898349;
0;07:01:06:655;-7.0581064;8.853758;8.7771435;14.326344286837449;
0;07:01:06:665;3.357868;4.489128;8.558074;10.230746911787373;
0;07:01:06:675;-5.104438;11.232397;12.898762;17.849372472337787;
0;07:01:06:685;-4.0054994;0.7769185;5.920861;7.190564373080737;
0;07:01:06:695;-0.3854665;5.6156;7.2939353;9.213307781855718;
0;07:01:06:706;1.484405;8.388085;10.970232;13.889183699128074;
0;07:01:06:716;-0.15203181;0.34356794;10.208876;10.215786658799482;
0;07:01:06:726;-9.938332;8.057686;8.35337;15.279905919289678;
0;07:01:06:736;1.5873557;3.393781;14.553155;15.027699644050545;
0;07:01:06:746;-5.687426;8.147469;18.702307;21.177920896445283;
0;07:01:06:757;0.5662287;2.0925324;5.711368;6.108930410613526;
0;07:01:06:768;1.8064252;3.9444473;11.326968;12.129387445164816;
0;07:01:06:779;-1.0702082;1.6651673;14.19163;14.329008884269308;
0;07:01:06:790;-0.6847417;0.92176765;4.5681367;4.710244097691633;
0;07:01:06:800;-1.7298107;1.638831;15.234305;15.419535327050179;
0;07:01:06:810;3.882198;2.2972364;4.995502;6.730809376355851;
0;07:01:06:821;-3.5075054;0.8343793;6.849811;7.740716603937937;
0;07:01:06:832;0.90740246;3.6272156;15.737088;16.17516667134231;
0;07:01:06:842;1.9093759;5.5042696;8.135497;10.006448573870923;
0;07:01:06:853;-1.2413936;4.1132383;5.4647655;6.951506900029111;
0;07:01:06:863;-1.4676456;5.98311;11.874043;13.377013438185319;
0;07:01:06:874;0.36272156;0.9528923;10.721235;10.769608113730966;
0;07:01:06:885;-0.91817635;-2.469619;10.411186;10.739406955478087;
0;07:01:06:895;5.506664;1.5191209;16.628927;17.582726828192598;
0;07:01:06:906;2.086547;3.2668881;8.724471;9.5468650106075;
0;07:01:06:918;-5.267244;7.57286;8.491036;12.53753398004493;
0;07:01:06:928;6.853402;4.268862;12.713211;15.06047886627914;
0;07:01:06:939;-9.66659;4.289212;5.140351;11.758550251979209;
0;07:01:06:949;-0.1352724;-2.006341;13.145365;13.298282391917962;
0;07:01:06:959;-2.7329812;0.35314476;8.250419;8.698465356633138;
0;07:01:06:970;2.1799207;2.134431;8.39886;8.93580963582239;
0;07:01:06:980;3.0561984;2.5103204;13.135788;13.718271720734586;
0;07:01:06:991;0.60932434;1.9644425;15.081077;15.220682949628936;
0;07:01:07:001;3.4249055;6.0441623;12.008119;13.872879553624582;
0;07:01:07:012;-8.01459;-0.073023155;10.359711;13.09819039229215;
0;07:01:07:022;-2.0147207;4.131195;8.010999;9.235906638524822;
0;07:01:07:033;0.24540567;1.638831;10.332177;10.464218935481401;
0;07:01:07:044;-7.8757267;0.4405331;12.11466;14.45635310233986;
0;07:01:07:055;1.282095;7.297527;17.513586;19.016397728496305;
0;07:01:07:066;-0.142455;0.6679823;6.5840545;6.6193858416697875;
0;07:01:07:077;1.3982137;6.291962;12.309788;13.895130846986753;
0;07:01:07:088;-3.657143;6.041768;17.410635;18.788503759883497;
0;07:01:07:099;-3.8283286;2.0171149;11.016919;11.83627268502288;
0;07:01:07:109;-3.0753522;-3.2130187;1.0821792;4.577378352083755;
0;07:01:07:120;-4.0414124;-3.5553896;4.865018;7.255495027864414;
0;07:01:07:130;-5.686229;3.003526;4.8362875;8.04636868856167;
0;07:01:07:141;3.6631286;6.791153;20.29086;21.70845993307714;
0;07:01:07:152;-7.833828;-1.9500773;7.785944;11.215729458232907;
0;07:01:07:161;-2.8107927;1.6496049;2.2649148;3.968827374522576;
0;07:01:07:171;-2.0231004;-1.5047557;13.524845;13.757857973022523;
0;07:01:07:182;-10.820595;3.4608185;3.4213142;11.864566757195036;
0;07:01:07:193;-4.0653543;4.578911;12.537237;13.952628508103993;
0;07:01:07:203;-3.2321723;-2.1380222;0.8415619;3.9656401938289387;
0;07:01:07:213;7.9236107;-0.2908955;8.678981;11.755548993088594;
0;07:01:07:224;-2.1392193;-1.590947;6.5625067;7.083351344665367;
0;07:01:07:234;-11.731588;5.1439424;7.953538;15.078099700432142;
0;07:01:07:244;-7.595605;1.8148049;7.603985;10.899877047064031;
0;07:01:07:255;-5.6407394;-0.63087213;6.5206084;8.644898832136272;
0;07:01:07:265;1.0941502;4.2437224;14.203602;14.864341700014995;
0;07:01:07:276;-1.8207904;-0.6332663;10.57878;10.75299456383401;
0;07:01:07:286;-9.0716305;3.7361517;8.730456;13.132942630229763;
0;07:01:07:296;-0.93732995;-3.6020765;16.68998;17.09996976793974;
0;07:01:07:307;-8.090008;-0.019153614;7.8637557;11.282164983020836;
0;07:01:07:316;4.787206;-4.5166616;13.959393;15.433153289557659;
0;07:01:07:326;-0.50517654;1.5933412;5.8478374;6.082034386038048;
0;07:01:07:337;-12.245145;1.9776106;3.7972038;12.972019307421238;
0;07:01:07:347;-4.8817773;-0.2621651;14.651318;15.44543895370592;
0;07:01:07:358;-1.2270284;-0.35913026;4.3873744;4.569860713180021;
0;07:01:07:369;9.050082;-6.0106435;15.443798;18.882338960239405;
0;07:01:07:380;-1.9740193;0.51954174;5.2863975;5.666804293288899;
0;07:01:07:391;-7.4112515;1.472434;6.609194;10.038732667247052;
0;07:01:07:401;3.1483753;-3.2094274;8.252813;9.397958136024274;
0;07:01:07:411;-0.8343793;-0.51714754;8.634688;8.690309358452406;
0;07:01:07:421;3.1387985;-4.0761285;13.312959;14.272412259635173;
0;07:01:07:432;-3.5625722;1.1839328;6.503849;7.509571833894258;
0;07:01:07:442;-7.1514807;4.1264067;2.9317;8.761607726809965;
0;07:01:07:453;-1.2198458;-3.1759086;6.4463882;7.2890562198526;
0;07:01:07:463;0.089782566;0.2873042;11.415554;11.419522190553634;
0;07:01:07:474;12.508507;-3.0071173;9.443929;15.95911285382288;
0;07:01:07:484;6.8007298;-8.48146;2.6192567;11.182378353119887;
0;07:01:07:495;-0.48602295;-17.54471;2.56419;17.737760380345286;
0;07:01:07:506;6.1183825;-8.851364;20.032286;22.73925527515688;
0;07:01:07:516;-12.506113;-22.012291;16.218323;30.066224309651542;
0;07:01:07:526;28.386852;-18.182764;0.5554548;33.71549704825568;
0;07:01:07:537;-34.90746;-12.083536;28.514942;46.665239003459526;
0;07:01:07:547;-3.5817258;-11.720815;24.224533;27.148375674390035;
0;07:01:07:558;13.14297;-7.967903;30.615854;34.25719871884594;
0;07:01:07:568;8.42759;3.7840357;25.649082;27.262036386331957;
0;07:01:07:579;2.4396915;-7.451953;13.000515;15.182130971312233;
0;07:01:07:589;-2.7401638;-3.6272156;7.8266454;9.05105352012785;
0;07:01:07:600;-1.555034;15.841235;-27.38009;31.670684024228148;
0;07:01:07:610;-9.768343;12.441469;39.225403;42.29471474673653;
0;07:01:07:621;4.0880995;-12.843695;-8.301894;15.830176805098043;
0;07:01:07:630;-0.78410107;7.398083;-5.533;9.27149075238089;
0;07:01:07:640;0.79846627;0.41060558;13.669695;13.699150248438656;
0;07:01:07:650;-0.5303157;5.2480903;6.2883706;8.207758178182605;
0;07:01:07:660;-2.7018566;-8.306683;19.523518;21.38851840316252;
0;07:01:07:671;3.5482068;-7.064092;26.337416;27.49819330002655;
0;07:01:07:681;2.9221232;-3.738546;23.839066;24.306717761152214;
0;07:01:07:692;1.2270284;-5.392939;21.35149;22.056190171975388;
0;07:01:07:703;-0.50038815;-2.6288335;12.952631;13.226178329846102;
0;07:01:07:714;1.283292;-3.989937;11.092337;11.85775564845872;
0;07:01:07:725;3.3542767;3.6296098;7.529764;9.006807931299974;
0;07:01:07:735;0.63087213;4.80636;5.5521536;7.370583456435538;
0;07:01:07:746;0.059855044;0.7745243;6.3685765;6.415780175474357;
0;07:01:07:756;0.1412579;5.151125;3.0885203;6.007745194275132;
0;07:01:07:766;7.7440453;1.7250223;12.872425;15.12102058962539;
0;07:01:07:776;-1.0510546;-6.8522053;15.799337;17.253304427612555;
0;07:01:07:787;-0.035913024;-6.0130377;13.138182;14.448866032123691;
0;07:01:07:796;-0.16998832;-4.120421;8.283937;9.25366880499508;
0;07:01:07:806;0.60573304;-5.8262897;18.175583;19.096187254941267;
0;07:01:07:816;-1.22224;-2.4588451;13.354857;13.634222146855489;
0;07:01:07:826;-0.2693477;-1.5526398;8.805874;8.945761536901017;
0;07:01:07:836;0.5662287;0.50278234;10.955867;10.98200453118415;
0;07:01:07:847;0.8882488;0.37110126;12.840104;12.876139470018456;
0;07:01:07:857;1.851915;0.053869538;7.1790137;7.414224829871351;
0;07:01:07:868;2.0709844;-0.1436521;16.3105;16.4420795515795;
0;07:01:07:878;4.1575313;-1.5167267;16.056713;16.655436483416608;
0;07:01:07:888;-3.2225955;-3.513491;11.477803;12.428583831029258;
0;07:01:07:899;3.4871547;4.0066967;3.7816415;6.520328132469878;
0;07:01:07:910;-1.5215151;1.0426749;8.781932;8.973544763093031;
0;07:01:07:921;4.8973393;0.8678981;3.5302503;6.099167513714602;
0;07:01:07:931;5.12838;1.0594343;9.624691;10.957068850202866;
0;07:01:07:942;-0.973243;-1.2294226;9.572019;9.699599063098603;
0;07:01:07:953;-1.3120226;-5.1463366;5.603629;7.7205467449537295;
0;07:01:07:964;-0.6440403;0.20111294;4.1371803;4.191836716303767;
0;07:01:07:974;-2.2098482;-1.590947;5.3043537;5.9624415108872935;
0;07:01:07:984;5.7975593;-0.985214;12.002133;13.365386074553738;
0;07:01:07:995;3.9025488;-1.1312603;2.574964;4.810413254970278;
0;07:01:08:005;-0.94570965;-0.7757214;9.629479;9.706852441134812;
0;07:01:08:016;-1.4915876;-4.345476;8.965088;10.073768135278844;
0;07:01:08:026;-3.144784;-0.37349546;10.915166;11.365298651057717;
0;07:01:08:037;5.651513;1.6280571;5.475539;8.035651874602625;
0;07:01:08:048;7.8829093;-1.4927847;15.05474;17.05912820106786;
0;07:01:08:059;3.0430303;0.79367787;6.0609217;6.828230309274442;
0;07:01:08:069;-6.8689647;0.16400282;11.251551;13.183586805553727;
0;07:01:08:080;-0.01316811;-4.1575313;7.201759;8.315682397161929;
0;07:01:08:091;0.47405192;-0.93732995;14.67885;14.71638408200937;
0;07:01:08:101;0.93014735;-1.3946224;7.6530657;7.834510985245326;
0;07:01:08:112;4.1575313;-4.7800236;19.335573;20.346942703821085;
0;07:01:08:122;0.7649474;1.0737995;10.770316;10.850709644086576;
0;07:01:08:133;1.5442601;-1.9297266;11.774684;12.031282974792473;
0;07:01:08:144;1.3096284;-1.1528081;10.485406;10.629573421154898;
0;07:01:08:155;-1.5047557;1.6867151;13.6170225;13.803354955670255;
0;07:01:08:166;-1.7429788;-0.7230489;5.0146556;5.357942350765904;
0;07:01:08:177;6.7085533;-1.2449849;16.121357;17.505794764642847;
0;07:01:08:186;2.8886044;-0.49081135;8.045714;8.562619396407525;
0;07:01:08:196;-5.568913;-1.1791444;12.25113;13.509010981028437;
0;07:01:08:206;-2.896984;-3.0669725;11.196485;11.9649534254686;
0;07:01:08:217;1.6543933;-3.693056;9.489418;10.316236524186;
0;07:01:08:227;1.4532804;-1.5837644;6.4368114;6.786226898564387;
0;07:01:08:237;1.7238252;-0.22505496;5.33907;5.614970102476859;
0;07:01:08:248;1.472434;-3.9815574;12.714408;13.404366171912162;
0;07:01:08:259;3.300407;1.8088194;8.333019;9.143507074348022;
0;07:01:08:270;0.40102878;-2.8431146;14.330494;14.615306282605747;
0;07:01:08:280;1.423353;-2.7736826;10.079589;10.550704238311129;
0;07:01:08:291;1.5957354;3.502717;9.850943;10.576221830156722;
0;07:01:08:301;-5.6886234;-0.90620536;7.2268977;9.241736767855278;
0;07:01:08:311;3.6403837;-0.90021986;14.173674;14.661371373335953;
0;07:01:08:322;4.2820296;6.9886746;22.799982;24.228424227079724;
0;07:01:08:332;-5.81791;-15.028404;-6.1985884;17.266253346880784;
0;07:01:08:343;-10.851719;-16.87553;2.2864625;20.193345679128974;
0;07:01:08:353;7.0341644;-3.454833;29.435513;30.460872379066068;
0;07:01:08:364;-4.6806645;-34.697968;-4.4208937;35.290251564259925;
0;07:01:08:375;-13.95221;-8.333019;14.992491;22.110589630946638;
0;07:01:08:386;9.348161;-17.882292;8.47308;21.88509951008691;
0;07:01:08:397;2.3546975;-10.5680065;9.25359;14.242762819221886;
0;07:01:08:408;4.286818;-8.413225;10.093954;13.821977910713713;
0;07:01:08:419;10.851719;-2.670732;-1.1468226;11.234225254891266;
0;07:01:08:430;6.066907;-3.264494;4.343082;8.144116727310974;
0;07:01:08:441;4.7201686;-6.18542;19.000385;20.53178212305102;
0;07:01:08:451;6.5505357;-11.270704;7.430405;15.004973032239752;
0;07:01:08:461;-3.5913026;-10.92594;3.084929;11.907577000156179;
0;07:01:08:472;-10.973824;-8.949526;1.6136919;14.2521162636699;
0;07:01:08:483;-6.159084;0.15322891;22.31755;23.152340784228763;
0;07:01:08:493;-1.4496891;-10.061633;14.036008;17.33053938037832;
0;07:01:08:504;2.6132712;-14.150929;16.668432;22.020777514292824;
0;07:01:08:514;-1.055843;-12.5264635;4.232949;13.264424659511304;
0;07:01:08:525;0.5710171;-11.134235;14.490906;18.28342418294548;
0;07:01:08:535;-1.5011644;-9.753978;5.8945246;11.495172565454174;
0;07:01:08:546;0.5650316;-10.995371;15.154099;18.731368510062623;
0;07:01:08:556;-2.4037786;-9.466674;6.647501;11.814623445054755;
0;07:01:08:566;-2.8514943;-9.885659;6.716933;12.287166344894553;
0;07:01:08:577;-2.3235726;-9.17099;5.1379566;10.765901736396906;
0;07:01:08:588;2.9173348;-17.050308;7.57286;18.88311552689209;
0;07:01:08:598;1.7286136;-9.103952;5.631162;10.843433386498111;
0;07:01:08:608;-1.9273324;-4.7297454;10.189722;11.39804994736113;
0;07:01:08:619;-1.6160861;-9.623494;6.0944405;11.505023688300662;
0;07:01:08:630;-1.5490485;-10.92594;20.280085;23.088039244430085;
0;07:01:08:640;2.8263552;-13.654132;5.3282957;14.926966572438202;
0;07:01:08:651;-2.8538885;-14.322115;4.795586;15.370923998427346;
0;07:01:08:662;-4.859032;-7.1861963;8.231265;11.95848404172418;
0;07:01:08:673;-2.079364;-12.665327;20.876242;24.506157548920232;
0;07:01:08:683;0.04070143;-6.4260373;17.122133;18.288331627856838;
0;07:01:08:693;0.59376204;-15.124172;0.81881696;15.157954861426877;
0;07:01:08:704;-3.4644098;-8.443152;3.478775;9.766822973395819;
0;07:01:08:715;-3.0346506;-10.222044;15.908273;19.151303621944955;
0;07:01:08:726;-3.6703112;-8.848969;12.409147;15.676810585598039;
0;07:01:08:736;6.0142345;-14.167688;3.7565024;15.843160102892934;
0;07:01:08:746;-1.9919758;-11.32218;10.216059;15.379453432766232;
0;07:01:08:757;-1.7405846;-13.65892;-2.1152773;13.930905548259641;
0;07:01:08:767;-3.2369606;-4.4999022;17.72667;18.573148710634495;
0;07:01:08:778;0.5602432;-12.605472;6.955156;14.407844504864952;
0;07:01:08:789;0.6979098;-11.954249;5.604826;13.221393149604404;
0;07:01:08:800;0.61530983;-0.6631939;13.618219;13.64823570167788;
0;07:01:08:810;0.46567222;-4.0773253;12.369643;13.032632219297703;
0;07:01:08:821;-4.6244006;-1.5107412;10.479421;11.553600618675521;
0;07:01:08:831;5.7867856;16.618155;-9.096769;19.809117940091454;
0;07:01:08:841;-1.5777789;0.36152446;17.794905;17.868371975113334;
0;07:01:08:852;-2.896984;6.2009826;6.4739213;9.421059543121414;
0;07:01:08:862;0.30406362;7.1131735;8.425196;11.030576344958279;
0;07:01:08:872;-0.23463176;5.41329;5.9603653;8.055105204069827;
0;07:01:08:883;1.0833763;2.0111294;7.3909006;7.735874716500684;
0;07:01:08:894;4.497508;5.3223104;6.223727;9.342876686952346;
0;07:01:08:905;1.4748282;-5.9867015;21.05461;21.9388305608333;
0;07:01:08:915;-0.23702596;-4.1946416;16.130934;16.669079618624156;
0;07:01:08:926;1.6938977;-3.5541923;13.14297;13.72003014919872;
0;07:01:08:936;-0.50278234;-3.2190042;12.621035;13.034772291693058;
0;07:01:08:947;-0.8451532;0.04309563;10.575189;10.608994220085918;
0;07:01:08:957;-3.8307228;3.2824504;6.3601966;8.11794408919842;
0;07:01:08:967;0.7589619;5.412093;8.063671;9.741127476537825;
0;07:01:08:977;1.0462662;3.2034419;5.7149596;6.634566687295699;
0;07:01:08:988;0.82719666;1.7022774;8.857349;9.057297469508875;
0;07:01:08:998;-2.8335378;-4.012682;14.126987;14.956681835987846;
0;07:01:09:009;-0.7445967;-2.597709;13.631388;13.896663215864312;
0;07:01:09:019;1.3922282;-0.15322891;12.160151;12.240548983959458;
0;07:01:09:030;0.59495914;0.24540567;9.755175;9.776381185763752;
0;07:01:09:040;1.3587095;3.942053;6.670246;7.866260826288881;
0;07:01:09:051;0.56982;-0.37229836;7.517793;7.5485441206277955;
0;07:01:09:062;-0.45968673;-0.59615624;9.81503;9.84385734378476;
0;07:01:09:072;-1.1013328;-1.2054806;13.429077;13.527979924760627;
0;07:01:09:083;-0.5303157;0.088585466;11.932701;11.944807921406559;
0;07:01:09:093;-1.4903905;-0.79726917;11.056423;11.184873475069814;
0;07:01:09:103;-0.40342298;0.46327803;9.209297;9.229763680488047;
0;07:01:09:114;0.18555063;0.8870517;9.344569;9.388411224473725;
0;07:01:09:124;1.115698;-0.2813187;11.402386;11.460293762809172;
0;07:01:09:135;1.3706805;-0.9744401;10.443508;10.578051072373686;
0;07:01:09:146;-0.18076223;2.6647465;9.92636;10.279405051504227;
0;07:01:09:156;0.59735334;2.9735985;9.279925;9.762998084184842;
0;07:01:09:166;-0.031124622;1.0295067;11.105505;11.153165332040412;
0;07:01:09:176;0.077811554;-0.5231331;12.309788;12.321144129153232;
0;07:01:09:187;-0.58418524;-0.21188685;11.07438;11.091801517926921;
0;07:01:09:198;-0.5374983;2.0937295;9.380483;9.62632128080957;
0;07:01:09:208;0.08738836;3.549404;10.001778;10.613267951201642;
0;07:01:09:219;0.22864626;1.2964603;9.611523;9.701260545761969;
0;07:01:09:229;-0.61171854;-0.7326257;9.557653;9.60519035218252;
0;07:01:09:240;0.21308395;-1.496376;11.610682;11.70864929279713;
0;07:01:09:250;-0.10654198;0.16998832;11.856087;11.85778395844997;
0;07:01:09:261;0.4213795;2.5031378;9.370906;9.708611305634124;
0;07:01:09:271;0.47405192;1.6280571;10.508151;10.644084709670468;
0;07:01:09:282;-0.80804306;1.376666;10.833763;10.95073348423627;
0;07:01:09:292;-0.7553706;0.31483752;10.150218;10.183154343584011;
0;07:01:09:303;0.0;0.6667852;10.164583;10.186429769081496;
0;07:01:09:313;0.35553896;0.5243302;9.76954;9.790058106667885;
0;07:01:09:323;-0.07062895;-0.33279404;10.515334;10.520835911715857;
0;07:01:09:334;-0.07182605;0.035913024;10.193314;10.193629755168137;
0;07:01:09:344;-0.16998832;-0.3184288;10.103531;10.10997684344046;
0;07:01:09:355;-0.20111294;-0.21906945;10.068815;10.073206163971578;
0;07:01:09:366;-0.14604631;-0.4177882;10.116699;10.126375458150541;
0;07:01:09:377;-0.12330139;-0.4249708;10.327389;10.336864196339924;
0;07:01:09:387;-0.15083471;-0.62608373;10.132261;10.152706713644458;
0;07:01:09:398;-0.21068975;-0.7194576;10.336966;10.36411458909155;
0;07:01:09:408;-0.19632454;-0.81402856;10.178948;10.21333342084893;
0;07:01:09:419;-0.059855044;-0.91458505;10.193314;10.234436500888686;
0;07:01:09:429;0.09935937;-0.842759;10.289082;10.324016267405261;
0;07:01:09:440;-0.051475335;-0.80684596;10.28549;10.317216384202526;
0;07:01:09:450;-0.015562311;-0.5267244;10.31063;10.324086841169242;
0;07:01:09:460;-0.108936176;-0.48243165;10.260351;10.272264072719679;
0;07:01:09:471;-0.16759412;-0.4213795;10.225636;10.235686193440376;
0;07:01:09:481;-0.1412579;-0.33039984;10.271125;10.277408334318165;
0;07:01:09:492;-0.11731588;-0.19153613;10.192117;10.194591090377289;
0;07:01:09:502;-0.09935937;-0.18555063;10.328587;10.330731177067383;
0;07:01:09:513;-0.055066638;-0.18794483;10.341754;10.343608013918812;
0;07:01:09:523;-0.08020575;-0.079008654;10.281899;10.28251552039899;
0;07:01:09:533;-0.09935937;-0.11252748;10.230424;10.231525426290457;
0;07:01:09:544;-0.10295067;-0.108936176;10.280702;10.281794293034526;
0;07:01:09:555;-0.12210429;-0.14844051;10.358514;10.360296654301782;
0;07:01:09:565;-0.15203181;-0.06584055;10.259154;10.260491932755878;
0;07:01:09:576;-0.09816227;-0.061052144;10.229227;10.229880334596112;
0;07:01:09:587;-0.11492168;-0.10414778;10.281899;10.28306902067115;
0;07:01:09:597;-0.092176765;-0.061052144;10.278308;10.278902568499;
0;07:01:09:607;-0.10055647;-0.10654198;10.267534;10.268579159579136;
0;07:01:09:618;-0.12928689;-0.1340753;10.245986;10.247678912597873;
0;07:01:09:629;-0.1328782;-0.20949265;10.296265;10.29925315149189;
0;07:01:09:639;-0.11731588;-0.22864626;10.281899;10.285110259107201;
0;07:01:09:650;-0.1412579;-0.22984336;10.231621;10.235177091660713;
0;07:01:09:660;-0.12090719;-0.2741361;10.278308;10.282673931361966;
0;07:01:09:671;-0.08619126;-0.272939;10.25676;10.26075255074962;
0;07:01:09:681;-0.09935937;-0.2861071;10.2495775;10.254051338259247;
0;07:01:09:692;-0.095768064;-0.29568392;10.236409;10.241126708987212;
0;07:01:09:703;-0.10055647;-0.30406362;10.267534;10.272527734194963;
0;07:01:09:713;-0.11252748;-0.31244332;10.268731;10.274099536059374;
0;07:01:09:724;-0.10414778;-0.3184288;10.289082;10.294534466423;
0;07:01:09:735;-0.095768064;-0.29927522;10.272323;10.277127723641799;
0;07:01:09:746;-0.094570965;-0.2837129;10.212467;10.216845226957368;
0;07:01:09:756;-0.108936176;-0.25977087;10.247183;10.251053546632072;
0;07:01:09:766;-0.11851298;-0.25378537;10.262746;10.26656733212987;
0;07:01:09:777;-0.11851298;-0.24061728;10.262746;10.266250382277898;
0;07:01:09:787;-0.09816227;-0.24899697;10.303447;10.306922467780376;
0;07:01:09:798;-0.11252748;-0.2657564;10.296265;10.300308696972614;
0;07:01:09:808;-0.09816227;-0.23343466;10.268731;10.27185297012868;
0;07:01:09:819;-0.093373865;-0.22385786;10.257957;10.260824674959315;
0;07:01:09:829;-0.089782566;-0.23104046;10.255563;10.25855772473874;
0;07:01:09:840;-0.11851298;-0.19273324;10.2495775;10.252074613194722;
0;07:01:09:851;-0.09935937;-0.21428105;10.234015;10.236740467928003;
0;07:01:09:862;-0.09816227;-0.23702596;10.28549;10.288689145299962;
0;07:01:09:872;-0.10534488;-0.2633622;10.287885;10.291794213702829;
0;07:01:09:882;-0.10414778;-0.25258827;10.259154;10.26279153723385;
0;07:01:09:893;-0.110133275;-0.25737667;10.257957;10.2617767413664;
0;07:01:09:904;-0.10654198;-0.24899697;10.254366;10.257941914168413;
0;07:01:09:915;-0.12090719;-0.2621651;10.289082;10.293131076756055;
0;07:01:09:926;-0.10534488;-0.25977087;10.266336;10.27016270880991;
0;07:01:09:936;-0.09816227;-0.25378537;10.25676;10.260368499384613;
0;07:01:09:947;-0.110133275;-0.23463176;10.2495775;10.252854484749562;
0;07:01:09:957;-0.11611878;-0.23702596;10.240001;10.24340161329859;
0;07:01:09:967;-0.095768064;-0.22864626;10.2495775;10.252574690328363;
0;07:01:09:978;-0.11492168;-0.22864626;10.277111;10.280296397407746;
0;07:01:09:989;-0.095768064;-0.2705448;10.241198;10.245218045403014;
0;07:01:09:999;-0.10175357;-0.23702596;10.241198;10.244445412231899;
0;07:01:10:010;-0.107739076;-0.24779987;10.260351;10.263908440125777;
0;07:01:10:020;-0.10295067;-0.23463176;10.213664;10.21687733701111;
0;07:01:10:031;-0.12330139;-0.24061728;10.261548;10.265109207456861;
0;07:01:10:041;-0.11372458;-0.23223756;10.250774;10.254035341449306;
0;07:01:10:052;-0.08259996;-0.25019407;10.257957;10.261340682867091;
0;07:01:10:062;-0.11971009;-0.24540567;10.268731;10.272360625594567;
0;07:01:10:073;-0.110133275;-0.22505496;10.234015;10.237082180118513;
0;07:01:10:083;-0.11731588;-0.2621651;10.234015;10.238045024220627;
0;07:01:10:093;-0.110133275;-0.23942018;10.267534;10.270915579837297;
0;07:01:10:104;-0.10534488;-0.25617957;10.266336;10.27007282116116;
0;07:01:10:114;-0.092176765;-0.25737667;10.242394;10.246042371439996;
0;07:01:10:125;-0.11492168;-0.24061728;10.253169;10.25663616934197;
0;07:01:10:136;-0.10295067;-0.2705448;10.263943;10.268023763690788;
0;07:01:10:147;-0.10055647;-0.23582886;10.232818;10.236028686173176;
0;07:01:10:157;-0.108936176;-0.24660277;10.269928;10.273465720018276;
0;07:01:10:168;-0.10534488;-0.22625206;10.267534;10.270566822073633;
0;07:01:10:178;-0.10055647;-0.24420857;10.262746;10.266143367691496;
0;07:01:10:188;-0.11731588;-0.25258827;10.247183;10.250966468465188;
0;07:01:10:198;-0.10295067;-0.25139117;10.271125;10.274716605851784;
0;07:01:10:208;-0.11133038;-0.24301147;10.274716;10.27819259310493;
0;07:01:10:218;-0.095768064;-0.25617957;10.2735195;10.277159274166282;
0;07:01:10:228;-0.090979666;-0.25258827;10.274716;10.278223026929732;
0;07:01:10:238;-0.11252748;-0.23702596;10.257957;10.261312429503299;
0;07:01:10:248;-0.08499416;-0.23942018;10.259154;10.262299392356441;
0;07:01:10:259;-0.10295067;-0.23463176;10.260351;10.263549780731932;
0;07:01:10:269;-0.11252748;-0.24660277;10.245986;10.249571256277015;
0;07:01:10:280;-0.09816227;-0.23702596;10.250774;10.253984374702384;
0;07:01:10:290;-0.10414778;-0.23702596;10.284293;10.287551571982101;
0;07:01:10:300;-0.11252748;-0.24660277;10.259154;10.262734666713131;
0;07:01:10:310;-0.10414778;-0.24420857;10.235212;10.238655325100604;
0;07:01:10:321;-0.10175357;-0.24540567;10.234015;10.237463006219409;
0;07:01:10:332;-0.11851298;-0.24301147;10.263943;10.267502890215612;
0;07:01:10:342;-0.12210429;-0.25258827;10.238804;10.242647092329591;
0;07:01:10:352;-0.11372458;-0.24420857;10.242394;10.245936635042053;
0;07:01:10:363;-0.11611878;-0.23343466;10.25676;10.260072922475343;
0;07:01:10:373;-0.089782566;-0.23104046;10.260351;10.263344614490018;
0;07:01:10:384;-0.10414778;-0.23463176;10.245986;10.249201301532521;
0;07:01:10:394;-0.10654198;-0.24181437;10.274716;10.278113538968222;
0;07:01:10:405;-0.107739076;-0.24540567;10.283096;10.286588540842574;
0;07:01:10:416;-0.11252748;-0.23702596;10.283096;10.286443169820048;
0;07:01:10:426;-0.12210429;-0.23463176;10.243592;10.247006607257541;
0;07:01:10:437;-0.092176765;-0.23942018;10.232818;10.236033158254937;
0;07:01:10:447;-0.10175357;-0.2621651;10.259154;10.26300786535487;
0;07:01:10:458;-0.09696517;-0.272939;10.228029;10.232129778172444;
0;07:01:10:468;-0.108936176;-0.23582886;10.259154;10.262442503383584;
0;07:01:10:479;-0.10295067;-0.22385786;10.272323;10.275277579983088;
0;07:01:10:489;-0.107739076;-0.25378537;10.247183;10.250890925695572;
0;07:01:10:500;-0.12928689;-0.24420857;10.250774;10.254498122799003;
0;07:01:10:511;-0.089782566;-0.25019407;10.267534;10.270974262088309;
0;07:01:10:522;-0.089782566;-0.23582886;10.257957;10.261060748079666;
0;07:01:10:532;-0.10414778;-0.24061728;10.267534;10.27088103886191;
0;07:01:10:541;-0.11731588;-0.25019407;10.268731;10.27244863646295;
0;07:01:10:551;-0.09816227;-0.24420857;10.245986;10.249366182409197;
0;07:01:10:561;-0.10175357;-0.25498247;10.254366;10.258040461218892;
0;07:01:10:572;-0.11731588;-0.25258827;10.225636;10.229427254045104;
0;07:01:10:582;-0.11372458;-0.24779987;10.261548;10.265169780978988;
0;07:01:10:593;-0.089782566;-0.25498247;10.250774;10.254338160546483;
0;07:01:10:603;-0.09816227;-0.23104046;10.21127;10.214355643811396;
0;07:01:10:614;-0.094570965;-0.24301147;10.2735195;10.276828545619251;
0;07:01:10:625;-0.10534488;-0.23822308;10.263943;10.267247273595219;
0;07:01:10:637;-0.10654198;-0.22984336;10.244789;10.247920872164677;
0;07:01:10:648;-0.09935937;-0.23822308;10.250774;10.254023436830364;
0;07:01:10:658;-0.11252748;-0.23582886;10.228029;10.231366223401608;
0;07:01:10:669;-0.10654198;-0.24181437;10.289082;10.292473971148887;
0;07:01:10:679;-0.1316811;-0.22864626;10.269928;10.27331682141574;
0;07:01:10:689;-0.11133038;-0.23463176;10.25676;10.260046896427644;
0;07:01:10:699;-0.108936176;-0.23942018;10.286688;10.290050508395575;
0;07:01:10:710;-0.12330139;-0.24420857;10.266336;10.269981075518295;
0;07:01:10:720;-0.107739076;-0.24660277;10.263943;10.267469823889071;
0;07:01:10:731;-0.108936176;-0.24181437;10.261548;10.264975052555648;
0;07:01:10:742;-0.09816227;-0.23822308;10.245986;10.249225121958535;
0;07:01:10:752;-0.10414778;-0.25857377;10.280702;10.284480088982797;
0;07:01:10:763;-0.10414778;-0.24540567;10.262746;10.266207650892806;
0;07:01:10:774;-0.09935937;-0.23582886;10.280702;10.283886232355892;
0;07:01:10:785;-0.10295067;-0.24899697;10.286688;10.290216217586854;
0;07:01:10:796;-0.10055647;-0.2621651;10.248381;10.252226424903055;
0;07:01:10:807;-0.092176765;-0.24660277;10.272323;10.275695970265948;
0;07:01:10:818;-0.088585466;-0.23223756;10.260351;10.263361340152414;
0;07:01:10:829;-0.095768064;-0.24660277;10.237606;10.241023529279;
0;07:01:10:839;-0.108936176;-0.24779987;10.259154;10.262724630706172;
0;07:01:10:849;-0.090979666;-0.24540567;10.214862;10.218214668460542;
0;07:01:10:860;-0.12090719;-0.24301147;10.262746;10.266334358220814;
0;07:01:10:870;-0.094570965;-0.22385786;10.251971;10.254851146940087;
0;07:01:10:881;-0.10414778;-0.25378537;10.268731;10.272394790240613;
0;07:01:10:891;-0.089782566;-0.25857377;10.262746;10.266395296085587;
0;07:01:10:902;-0.09696517;-0.24301147;10.250774;10.254113093151862;
0;07:01:10:913;-0.11252748;-0.24301147;10.277111;10.280599556148792;
0;07:01:10:924;-0.11133038;-0.2681506;10.275913;10.280014010171213;
0;07:01:10:935;-0.092176765;-0.23463176;10.234015;10.23711944357167;
0;07:01:10:946;-0.09935937;-0.23343466;10.281899;10.285028661855801;
0;07:01:10:957;-0.11252748;-0.22744916;10.272323;10.275456520946754;
0;07:01:10:967;-0.095768064;-0.23582886;10.271125;10.274278126254176;
0;07:01:10:977;-0.10175357;-0.25139117;10.28549;10.289065095268276;
0;07:01:10:987;-0.092176765;-0.25258827;10.240001;10.243530092328593;
0;07:01:10:997;-0.11252748;-0.25498247;10.251971;10.255758761230428;
0;07:01:11:007;-0.10414778;-0.24301147;10.217256;10.22067569238388;
0;07:01:11:018;-0.10295067;-0.24899697;10.248381;10.251922055046746;
0;07:01:11:028;-0.108936176;-0.23822308;10.28549;10.28882521556306;
0;07:01:11:039;-0.107739076;-0.24660277;10.272323;10.27584706177131;
0;07:01:11:049;-0.107739076;-0.24420857;10.266336;10.269805753629674;
0;07:01:11:060;-0.08738836;-0.24779987;10.25676;10.260124602574354;
0;07:01:11:070;-0.10414778;-0.24660277;10.257957;10.261449978041869;
0;07:01:11:081;-0.11492168;-0.2621651;10.26514;10.269130067762937;
0;07:01:11:092;-0.094570965;-0.24181437;10.291476;10.294751239159297;
0;07:01:11:103;-0.093373865;-0.25617957;10.261548;10.265170152594585;
0;07:01:11:114;-0.108936176;-0.24540567;10.263943;10.267453847985283;
0;07:01:11:124;-0.094570965;-0.25977087;10.235212;10.238945186646731;
0;07:01:11:134;-0.09935937;-0.2645593;10.248381;10.252276284140398;
0;07:01:11:145;-0.07182605;-0.23702596;10.275913;10.27889737283002;
0;07:01:11:156;-0.09935937;-0.24899697;10.236409;10.239919031538331;
0;07:01:11:167;-0.08140286;-0.23702596;10.253169;10.256231507186444;
0;07:01:11:177;-0.107739076;-0.23702596;10.275913;10.279210963860542;
0;07:01:11:188;-0.11252748;-0.23104046;10.26514;10.268355890327802;
0;07:01:11:198;-0.11372458;-0.22505496;10.242394;10.245498040726915;
0;07:01:11:208;-0.093373865;-0.23942018;10.260351;10.263568736101668;
0;07:01:11:218;-0.108936176;-0.22984336;10.237606;10.24076538920973;
0;07:01:11:228;-0.09696517;-0.23822308;10.279505;10.282722159039405;
0;07:01:11:238;-0.090979666;-0.25378537;10.271125;10.274662400242883;
0;07:01:11:248;-0.08140286;-0.25498247;10.257957;10.261448862790862;
0;07:01:11:258;-0.08499416;-0.24540567;10.259154;10.262441016526028;
0;07:01:11:269;-0.10534488;-0.24899697;10.26514;10.26869952235292;
0;07:01:11:279;-0.10654198;-0.23463176;10.242394;10.24563580157501;
0;07:01:11:290;-0.092176765;-0.22864626;10.277111;10.280067445407589;
0;07:01:11:301;-0.107739076;-0.25857377;10.272323;10.276141442524882;
0;07:01:11:312;-0.09816227;-0.25737667;10.253169;10.256868991618761;
0;07:01:11:323;-0.089782566;-0.23343466;10.244789;10.247841584505162;
0;07:01:11:333;-0.108936176;-0.24660277;10.259154;10.262695637742048;
0;07:01:11:344;-0.092176765;-0.23822308;10.279505;10.282678012174202;
0;07:01:11:354;-0.094570965;-0.25258827;10.268731;10.272272613972126;
0;07:01:11:364;-0.11492168;-0.23463176;10.255563;10.25889015783422;
0;07:01:11:374;-0.095768064;-0.24540567;10.261548;10.264928971243199;
0;07:01:11:384;-0.12449849;-0.24660277;10.263943;10.267659303642851;
0;07:01:11:395;-0.11372458;-0.24061728;10.286688;10.290130212254665;
0;07:01:11:405;-0.09816227;-0.24779987;10.263943;10.267402576312206;
0;07:01:11:415;-0.107739076;-0.22385786;10.254366;10.257375157280126;
0;07:01:11:426;-0.10414778;-0.22864626;10.28549;10.288558264030183;
0;07:01:11:435;-0.107739076;-0.20949265;10.266336;10.269039056648516;
0;07:01:11:445;-0.11731588;-0.21906945;10.277111;10.280114943162305;
0;07:01:11:456;-0.12330139;-0.23702596;10.271125;10.27459928376258;
0;07:01:11:466;-0.10414778;-0.25617957;10.247183;10.250913625798152;
0;07:01:11:476;-0.12569559;-0.23942018;10.228029;10.23160297621495;
0;07:01:11:487;-0.11851298;-0.22505496;10.267534;10.270684190225671;
0;07:01:11:498;-0.10175357;-0.22864626;10.298658;10.30169851872037;
0;07:01:11:509;-0.10295067;-0.23104046;10.259154;10.26227188507321;
0;07:01:11:520;-0.11611878;-0.23223756;10.251971;10.255258839361622;
0;07:01:11:531;-0.089782566;-0.25617957;10.241198;10.24479468687731;
0;07:01:11:541;-0.093373865;-0.24899697;10.255563;10.259009890605764;
0;07:01:11:552;-0.09696517;-0.21428105;10.238804;10.24150514984858;
0;07:01:11:563;-0.09696517;-0.24660277;10.21127;10.214707814583083;
0;07:01:11:574;-0.10654198;-0.25019407;10.217256;10.220873877383617;
0;07:01:11:585;-0.12808979;-0.23702596;10.255563;10.259100990691486;
0;07:01:11:596;-0.110133275;-0.25019407;10.266336;10.269975503894152;
0;07:01:11:607;-0.10654198;-0.24660277;10.279505;10.283014488120234;
0;07:01:11:617;-0.09935937;-0.22864626;10.275913;10.278936711401242;
0;07:01:11:627;-0.094570965;-0.21667525;10.269928;10.27264879339413;
0;07:01:11:638;-0.10534488;-0.24301147;10.269928;10.273342813845977;
0;07:01:11:648;-0.095768064;-0.23702596;10.266336;10.26951899188599;
0;07:01:11:659;-0.09935937;-0.24779987;10.248381;10.251857310170946;
0;07:01:11:669;-0.107739076;-0.24660277;10.226832;10.23037254751446;
0;07:01:11:679;-0.09816227;-0.24061728;10.250774;10.254068079080135;
0;07:01:11:689;-0.10414778;-0.23702596;10.259154;10.262420572212804;
0;07:01:11:699;-0.11492168;-0.22505496;10.269928;10.273036470309666;
0;07:01:11:710;-0.108936176;-0.23582886;10.263943;10.267229439640031;
0;07:01:11:720;-0.092176765;-0.24181437;10.259154;10.262417598491123;
0;07:01:11:730;-0.092176765;-0.24181437;10.259154;10.262417598491123;
0;07:01:11:741;-0.10654198;-0.23463176;10.272323;10.27555452878449;
0;07:01:11:751;-0.11252748;-0.22864626;10.25676;10.259924944924709;
0;07:01:11:762;-0.09935937;-0.21308395;10.279505;10.282193126147671;
0;07:01:11:773;-0.089782566;-0.22385786;10.241198;10.244037289457363;
0;07:01:11:783;-0.11971009;-0.24899697;10.243592;10.247317451587673;
0;07:01:11:793;-0.130484;-0.23702596;10.26514;10.268704723181719;
0;07:01:11:804;-0.11372458;-0.22146365;10.255563;10.258584126418645;
0;07:01:11:814;-0.10534488;-0.25498247;10.251971;10.255682509841838;
0;07:01:11:825;-0.10295067;-0.22984336;10.244789;10.247884020230217;
0;07:01:11:836;-0.093373865;-0.23702596;10.260351;10.26351335658986;
0;07:01:11:845;-0.10295067;-0.22625206;10.2495775;10.252591433560378;
0;07:01:11:855;-0.09696517;-0.25378537;10.257957;10.261554439348785;
0;07:01:11:866;-0.10654198;-0.22984336;10.269928;10.2730520662013;
0;07:01:11:876;-0.10654198;-0.25019407;10.234015;10.23762770353043;
0;07:01:11:886;-0.09935937;-0.22505496;10.272323;10.275268298727768;
0;07:01:11:896;-0.08140286;-0.23343466;10.269928;10.27290316160314;
0;07:01:11:906;-0.11492168;-0.23822308;10.308235;10.311627715239496;
0;07:01:11:916;-0.10175357;-0.24420857;10.274716;10.278121704212378;
0;07:01:11:927;-0.09696517;-0.23223756;10.238804;10.241896612836284;
0;07:01:11:938;-0.11492168;-0.23104046;10.2735195;10.276759874496747;
0;07:01:11:949;-0.12330139;-0.24181437;10.255563;10.259154163020701;
0;07:01:11:959;-0.092176765;-0.24061728;10.263943;10.267176309131589;
0;07:01:11:970;-0.10654198;-0.23582886;10.278308;10.281565003366804;
0;07:01:11:980;-0.11372458;-0.22984336;10.259154;10.262358495593976;
0;07:01:11:991;-0.09696517;-0.22385786;10.2735195;10.276415769583087;
0;07:01:12:001;-0.10175357;-0.24301147;10.274716;10.278093125829454;
0;07:01:12:012;-0.10654198;-0.23104046;10.254366;10.257521684043997;
0;07:01:12:022;-0.11971009;-0.23942018;10.272323;10.275809938757185;
0;07:01:12:033;-0.11611878;-0.24181437;10.236409;10.239923501921062;
0;07:01:12:043;-0.11252748;-0.2633622;10.253169;10.257168379910127;
0;07:01:12:054;-0.10414778;-0.25857377;10.278308;10.28208739050379;
0;07:01:12:064;-0.110133275;-0.24061728;10.25676;10.260172564447739;
0;07:01:12:075;-0.09935937;-0.23343466;10.257957;10.261094206822635;
0;07:01:12:086;-0.108936176;-0.25737667;10.283096;10.286893739136852;
0;07:01:12:096;-0.10654198;-0.22146365;10.25676;10.259703346410541;
0;07:01:12:107;-0.09696517;-0.24061728;10.231621;10.234909113567559;
0;07:01:12:117;-0.10414778;-0.22625206;10.259154;10.262177095897274;
0;07:01:12:127;-0.10295067;-0.25378537;10.248381;10.252039264557625;
0;07:01:12:138;-0.08499416;-0.24660277;10.251971;10.2552889692715;
0;07:01:12:149;-0.11252748;-0.24061728;10.242394;10.245838343890686;
0;07:01:12:160;-0.11133038;-0.24301147;10.261548;10.265028937698952;
0;07:01:12:170;-0.110133275;-0.25139117;10.275913;10.279577612010508;
0;07:01:12:180;-0.09935937;-0.23343466;10.26514;10.268274159937143;
0;07:01:12:191;-0.094570965;-0.23104046;10.250774;10.25381398768016;
0;07:01:12:202;-0.11133038;-0.23223756;10.238804;10.242042616132956;
0;07:01:12:213;-0.110133275;-0.23822308;10.309433;10.312772989994691;
0;07:01:12:224;-0.093373865;-0.22266077;10.247183;10.25002679588723;
0;07:01:12:235;-0.094570965;-0.22625206;10.224439;10.227379004956996;
0;07:01:12:245;-0.09696517;-0.23463176;10.272323;10.275459490894967;
0;07:01:12:256;-0.11372458;-0.21787235;10.25676;10.259703718224138;
0;07:01:12:266;-0.107739076;-0.23822308;10.238804;10.242141688613222;
0;07:01:12:275;-0.10534488;-0.23343466;10.271125;10.274317111226944;
0;07:01:12:286;-0.10534488;-0.25617957;10.237606;10.241352806734652;
0;07:01:12:297;-0.088585466;-0.24660277;10.25676;10.260106012640659;
0;07:01:12:307;-0.10175357;-0.24660277;10.280702;10.284162207470782;
0;07:01:12:317;-0.09816227;-0.24899697;10.248381;10.25187479876966;
0;07:01:12:328;-0.094570965;-0.23582886;10.292673;10.295808728223541;
0;07:01:12:338;-0.089782566;-0.2693477;10.263943;10.26786884188726;
0;07:01:12:349;-0.11252748;-0.23702596;10.259154;10.26250866832669;
0;07:01:12:359;-0.10534488;-0.23104046;10.275913;10.279049901733341;
0;07:01:12:370;-0.11492168;-0.22385786;10.226832;10.229927692474748;
0;07:01:12:381;-0.09696517;-0.24061728;10.274716;10.277990688375429;
0;07:01:12:392;-0.12569559;-0.23942018;10.251971;10.255536700729978;
0;07:01:12:403;-0.107739076;-0.24540567;10.244789;10.248294223179938;
0;07:01:12:413;-0.107739076;-0.22625206;10.240001;10.24306644302623;
0;07:01:12:423;-0.11611878;-0.22864626;10.275913;10.279112619774141;
0;07:01:12:434;-0.11372458;-0.24061728;10.269928;10.273375861269463;
0;07:01:12:444;-0.08619126;-0.24779987;10.261548;10.26490147100656;
0;07:01:12:455;-0.09696517;-0.23582886;10.266336;10.269502647711215;
0;07:01:12:465;-0.10175357;-0.22984336;10.254366;10.257446189551422;
0;07:01:12:475;-0.11133038;-0.22505496;10.253169;10.256243037303395;
0;07:01:12:486;-0.09935937;-0.23463176;10.278308;10.28146593974406;
0;07:01:12:496;-0.108936176;-0.24061728;10.261548;10.26494680919514;
0;07:01:12:506;-0.10055647;-0.25258827;10.251971;10.255575384982102;
0;07:01:12:517;-0.10055647;-0.24301147;10.298658;10.302015859127705;
0;07:01:12:528;-0.12689269;-0.23104046;10.238804;10.242196438783285;
0;07:01:12:538;-0.10055647;-0.25019407;10.21965;10.223207020890861;
0;07:01:12:549;-0.10175357;-0.2633622;10.251971;10.255858073164553;
0;07:01:12:560;-0.09935937;-0.23942018;10.234015;10.23729756100403;
0;07:01:12:571;-0.08140286;-0.23942018;10.268731;10.271844428527293;
0;07:01:12:581;-0.11372458;-0.25019407;10.291476;10.295145123919264;
0;07:01:12:591;-0.11611878;-0.25019407;10.238804;10.242518602223505;
0;07:01:12:601;-0.089782566;-0.24301147;10.247183;10.250457009152537;
0;07:01:12:611;-0.08379706;-0.24301147;10.295067;10.298275656941197;
0;07:01:12:621;-0.11252748;-0.23702596;10.2735195;10.276869376879961;
0;07:01:12:631;-0.108936176;-0.24301147;10.260351;10.26380660443208;
0;07:01:12:641;-0.090979666;-0.24420857;10.251971;10.25528301769138;
0;07:01:12:652;-0.10654198;-0.24420857;10.291476;10.294924654061948;
0;07:01:12:662;-0.11133038;-0.2633622;10.275913;10.279890440123255;
0;07:01:12:672;-0.10175357;-0.24420857;10.253169;10.256581868178714;
0;07:01:12:682;-0.10055647;-0.23343466;10.295067;10.298204165445698;
0;07:01:12:692;-0.11492168;-0.24660277;10.269928;10.273531071341933;
0;07:01:12:702;-0.09696517;-0.25498247;10.262746;10.26637077235423;
0;07:01:12:712;-0.093373865;-0.25617957;10.262746;10.266367428204507;
0;07:01:12:723;-0.090979666;-0.24660277;10.248381;10.251750889544162;
0;07:01:12:733;-0.10534488;-0.24181437;10.259154;10.262544352613316;
0;07:01:12:743;-0.092176765;-0.23942018;10.266336;10.269541650812535;
0;07:01:12:754;-0.093373865;-0.24420857;10.261548;10.264878430211033;
0;07:01:12:764;-0.12210429;-0.22385786;10.278308;10.28147076308862;
0;07:01:12:775;-0.11372458;-0.23942018;10.230424;10.23385725968567;
0;07:01:12:786;-0.11851298;-0.260968;10.235212;10.239224980947006;
0;07:01:12:797;-0.093373865;-0.23463176;10.223241;10.226359575908782;
0;07:01:12:807;-0.09696517;-0.23104046;10.266336;10.269393809702207;
0;07:01:12:818;-0.08259996;-0.24420857;10.255563;10.258802402493112;
0;07:01:12:828;-0.093373865;-0.25139117;10.234015;10.237528214747636;
0;07:01:12:839;-0.08738836;-0.25258827;10.2735195;10.276995581569244;
0;07:01:12:849;-0.10175357;-0.25139117;10.25676;10.260344704829077;
0;07:01:12:859;-0.088585466;-0.24779987;10.271125;10.274495326361572;
0;07:01:12:870;-0.08738836;-0.23942018;10.289082;10.292237506638992;
0;07:01:12:880;-0.09935937;-0.24779987;10.244789;10.24826705053408;
0;07:01:12:891;-0.10534488;-0.25498247;10.243592;10.24730665595462;
0;07:01:12:902;-0.10175357;-0.24899697;10.248381;10.251909775877584;
0;07:01:12:912;-0.092176765;-0.24181437;10.251971;10.255236892828334;
0;07:01:12:923;-0.090979666;-0.22864626;10.254366;10.25731825672891;
0;07:01:12:933;-0.11252748;-0.25617957;10.242394;10.246215866123226;
0;07:01:12:943;-0.11492168;-0.23343466;10.279505;10.282797096981701;
0;07:01:12:954;-0.10055647;-0.25378537;10.274716;10.278341792213304;
0;07:01:12:964;-0.10055647;-0.24420857;10.274716;10.27810982749146;
0;07:01:12:975;-0.110133275;-0.25378537;10.231621;10.235360460666035;
0;07:01:12:986;-0.11492168;-0.22505496;10.250774;10.253888764866044;
0;07:01:12:995;-0.12090719;-0.24779987;10.229227;10.232942483833348;
0;07:01:13:006;-0.107739076;-0.24301147;10.2495775;10.25302414360541;
0;07:01:13:017;-0.11372458;-0.24061728;10.275913;10.279359034879983;
0;07:01:13:028;-0.090979666;-0.25617957;10.272323;10.275919451263116;
0;07:01:13:038;-0.12090719;-0.23822308;10.247183;10.250664294046425;
0;07:01:13:048;-0.10295067;-0.23223756;10.237606;10.240757194180333;
0;07:01:13:058;-0.108936176;-0.24660277;10.224439;10.227992180073493;
0;07:01:13:069;-0.12090719;-0.25617957;10.2495775;10.25349143506185;
0;07:01:13:081;-0.11492168;-0.24899697;10.226832;10.23050864766466;
0;07:01:13:092;-0.09696517;-0.24779987;10.26514;10.26858807538854;
0;07:01:13:102;-0.107739076;-0.22984336;10.237606;10.240752724161533;
0;07:01:13:113;-0.11731588;-0.25019407;10.2495775;10.253302065533342;
0;07:01:13:124;-0.107739076;-0.24660277;10.254366;10.257896545019369;
0;07:01:13:134;-0.074220255;-0.23223756;10.261548;10.264443990046646;
0;07:01:13:144;-0.11611878;-0.25857377;10.242394;10.246316015150237;
0;07:01:13:155;-0.12330139;-0.24181437;10.243592;10.247187903240402;
0;07:01:13:166;-0.11731588;-0.23702596;10.253169;10.256579636617909;
0;07:01:13:176;-0.088585466;-0.22385786;10.269928;10.272749427409385;
0;07:01:13:187;-0.092176765;-0.23822308;10.277111;10.280284894268457;
0;07:01:13:197;-0.093373865;-0.22505496;10.281899;10.284786091658487;
0;07:01:13:208;-0.10534488;-0.22744916;10.271125;10.274182705268116;
0;07:01:13:218;-0.107739076;-0.23822308;10.26514;10.268468825797115;
0;07:01:13:228;-0.089782566;-0.25019407;10.281899;10.285334648210704;
0;07:01:13:238;-0.08738836;-0.24540567;10.229227;10.232543595083921;
0;07:01:13:249;-0.08259996;-0.24301147;10.232818;10.236036139641692;
0;07:01:13:259;-0.095768064;-0.24420857;10.267534;10.270884381542025;
0;07:01:13:270;-0.09816227;-0.24301147;10.268731;10.272075049271743;
0;07:01:13:281;-0.09696517;-0.2681506;10.25676;10.260722436883176;
0;07:01:13:292;-0.09935937;-0.24301147;10.271125;10.274479361381818;
0;07:01:13:302;-0.10295067;-0.23463176;10.220847;10.224058119989243;
0;07:01:13:313;-0.10534488;-0.22385786;10.261548;10.264530210600773;
0;07:01:13:324;-0.08020575;-0.23343466;10.254366;10.257336479815617;
0;07:01:13:334;-0.10295067;-0.24540567;10.261548;10.264998464756111;
0;07:01:13:345;-0.11611878;-0.22026655;10.263943;10.266962669696307;
0;07:01:13:354;-0.08499416;-0.23463176;10.267534;10.270566450653302;
0;07:01:13:364;-0.092176765;-0.24779987;10.259154;10.262560336159797;
0;07:01:13:375;-0.10534488;-0.24420857;10.236409;10.23986352412354;
0;07:01:13:385;-0.077811554;-0.23463176;10.260351;10.263328260482652;
0;07:01:13:396;-0.10414778;-0.23582886;10.259154;10.262392693538224;
0;07:01:13:406;-0.093373865;-0.24301147;10.281899;10.285194451956208;
0;07:01:13:416;-0.108936176;-0.23942018;10.295067;10.298426787588307;
0;07:01:13:427;-0.10175357;-0.23702596;10.266336;10.269576567749002;
0;07:01:13:438;-0.108936176;-0.23582886;10.2735195;10.276803304395125;
0;07:01:13:448;-0.090979666;-0.23822308;10.262746;10.265913356870945;
0;07:01:13:459;-0.10414778;-0.23104046;10.298658;10.301775910689502;
0;07:01:13:471;-0.10654198;-0.24420857;10.268731;10.27218720112808;
0;07:01:13:481;-0.09696517;-0.20949265;10.21127;10.21387946571891;
0;07:01:13:491;-0.09696517;-0.23582886;10.275913;10.279076250779344;
0;07:01:13:502;-0.08140286;-0.24779987;10.257957;10.26127302336599;
0;07:01:13:512;-0.110133275;-0.23582886;10.263943;10.267242072028155;
0;07:01:13:522;-0.108936176;-0.23104046;10.224439;10.227628904363469;
0;07:01:13:532;-0.09935937;-0.23223756;10.2735195;10.276624386882226;
0;07:01:13:543;-0.10534488;-0.23223756;10.303447;10.30660231747429;
0;07:01:13:554;-0.08619126;-0.24779987;10.262746;10.26609877795126;
0;07:01:13:564;-0.10414778;-0.24540567;10.228029;10.231502683172288;
0;07:01:13:575;-0.094570965;-0.24181437;10.259154;10.262439529668258;
0;07:01:13:586;-0.1376666;-0.24660277;10.266336;10.270220652497033;
0;07:01:13:596;-0.08379706;-0.23702596;10.277111;10.280185447237313;
0;07:01:13:606;-0.10295067;-0.23582886;10.279505;10.28272512688909;
0;07:01:13:617;-0.09696517;-0.24061728;10.274716;10.277990688375429;
0;07:01:13:627;-0.094570965;-0.24899697;10.245986;10.24944769138882;
0;07:01:13:638;-0.10534488;-0.23702596;10.278308;10.281580215299241;
0;07:01:13:648;-0.10175357;-0.24899697;10.254366;10.257893198106984;
0;07:01:13:659;-0.11252748;-0.24420857;10.26514;10.268660887542243;
0;07:01:13:669;-0.09696517;-0.23942018;10.255563;10.25881541710382;
0;07:01:13:680;-0.09816227;-0.25139117;10.279505;10.283046762522032;
0;07:01:13:691;-0.09816227;-0.25737667;10.254366;10.25806537673832;
0;07:01:13:701;-0.09935937;-0.22744916;10.261548;10.26454953579803;
0;07:01:13:712;-0.09696517;-0.23223756;10.257957;10.261044390432286;
0;07:01:13:722;-0.09935937;-0.25258827;10.272323;10.27590794322415;
0;07:01:13:733;-0.094570965;-0.23582886;10.268731;10.271874138414551;
0;07:01:13:743;-0.08259996;-0.23582886;10.267534;10.270574250477445;
0;07:01:13:754;-0.11252748;-0.24061728;10.26514;10.268575816148614;
0;07:01:13:764;-0.11492168;-0.24061728;10.272323;10.275783210103972;
0;07:01:13:775;-0.11971009;-0.24779987;10.278308;10.281991670983203;
0;07:01:13:786;-0.11372458;-0.25977087;10.283096;10.287005729435627;
0;07:01:13:797;-0.09696517;-0.25977087;10.279505;10.283243745468203;
0;07:01:13:807;-0.09816227;-0.23343466;10.236409;10.239540904601716;
0;07:01:13:818;-0.09696517;-0.24181437;10.229227;10.232544340684873;
0;07:01:13:828;-0.10175357;-0.24660277;10.291476;10.294933176513906;
0;07:01:13:838;-0.10534488;-0.25737667;10.230424;10.234203168285555;
0;07:01:13:849;-0.10175357;-0.23702596;10.247183;10.250428725789961;
0;07:01:13:859;-0.088585466;-0.24181437;10.241198;10.244434985940043;
0;07:01:13:869;-0.09935937;-0.24540567;10.2495775;10.252996611438052;
0;07:01:13:879;-0.1316811;-0.2621651;10.291476;10.295656818115406;
0;07:01:13:889;-0.077811554;-0.22984336;10.269928;10.272794359621832;
0;07:01:13:899;-0.108936176;-0.23223756;10.278308;10.281508607713572;
0;07:01:13:910;-0.107739076;-0.24779987;10.254366;10.25792555154763;
0;07:01:13:920;-0.12449849;-0.24899697;10.283096;10.28686407262828;
0;07:01:13:931;-0.10414778;-0.22625206;10.241198;10.244225713123749;
0;07:01:13:941;-0.073023155;-0.25737667;10.280702;10.284181866705804;
0;07:01:13:952;-0.10175357;-0.24061728;10.2735195;10.276840795014499;
0;07:01:13:962;-0.110133275;-0.22864626;10.25676;10.259898918501639;
0;07:01:13:972;-0.10654198;-0.23582886;10.25676;10.26002347292827;
0;07:01:13:982;-0.110133275;-0.25857377;10.26514;10.268986306980315;
0;07:01:13:993;-0.11252748;-0.23463176;10.241198;10.244502756647442;
0;07:01:14:002;-0.107739076;-0.22864626;10.240001;10.243119698591244;
0;07:01:14:013;-0.10175357;-0.23942018;10.242394;10.245697607191412;
0;07:01:14:023;-0.095768064;-0.24181437;10.253169;10.256467314096835;
0;07:01:14:033;-0.10654198;-0.22625206;10.240001;10.243053780823175;
0;07:01:14:043;-0.09696517;-0.25737667;10.248381;10.252070520200876;
0;07:01:14:053;-0.11492168;-0.24660277;10.245986;10.249597681104937;
0;07:01:14:063;-0.090979666;-0.24420857;10.260351;10.263660167393418;
0;07:01:14:074;-0.11851298;-0.24301147;10.245986;10.249552647202385;
0;07:01:14:085;-0.107739076;-0.24899697;10.278308;10.281888159335995;
0;07:01:14:095;-0.08140286;-0.25378537;10.25676;10.260221641481445;
0;07:01:14:106;-0.08738836;-0.22026655;10.267534;10.270268195791022;
0;07:01:14:118;-0.11133038;-0.23702596;10.284293;10.287626474745606;
0;07:01:14:127;-0.10414778;-0.24420857;10.278308;10.281736414571737;
0;07:01:14:137;-0.09696517;-0.25977087;10.222044;10.225803752171743;
0;07:01:14:148;-0.10295067;-0.24540567;10.241198;10.244654680560286;
0;07:01:14:158;-0.107739076;-0.25617957;10.226832;10.23060783183906;
0;07:01:14:169;-0.10654198;-0.23104046;10.255563;10.258717993045712;
0;07:01:14:179;-0.10055647;-0.24061728;10.25676;10.260074409676074;
0;07:01:14:190;-0.10295067;-0.23104046;10.2495775;10.252698217530158;
0;07:01:14:201;-0.11731588;-0.25617957;10.245986;10.249859692613441;
0;07:01:14:211;-0.10295067;-0.23582886;10.244789;10.248020260054538;
0;07:01:14:221;-0.09816227;-0.23942018;10.231621;10.234892341409086;
0;07:01:14:231;-0.08140286;-0.23942018;10.272323;10.275434988796551;
0;07:01:14:241;-0.092176765;-0.22864626;10.243592;10.246558379190745;
0;07:01:14:251;-0.09935937;-0.25019407;10.260351;10.26388205214155;
0;07:01:14:261;-0.10175357;-0.24899697;10.271125;10.274646064249875;
0;07:01:14:271;-0.10654198;-0.22744916;10.261548;10.264621633328264;
0;07:01:14:281;-0.10534488;-0.24061728;10.269928;10.273286373056678;
0;07:01:14:292;-0.09935937;-0.24420857;10.280702;10.284081715493953;
0;07:01:14:303;-0.08499416;-0.23343466;10.260351;10.263357995022115;
0;07:01:14:314;-0.093373865;-0.22984336;10.242394;10.245398628369674;
0;07:01:14:325;-0.08499416;-0.22864626;10.275913;10.278807932688004;
0;07:01:14:336;-0.11611878;-0.23702596;10.234015;10.237418291559996;
0;07:01:14:347;-0.11372458;-0.24061728;10.267534;10.270982804413348;
0;07:01:14:358;-0.10414778;-0.25139117;10.244789;10.248402168595714;
0;07:01:14:368;-0.12449849;-0.23822308;10.243592;10.24711828894051;
0;07:01:14:379;-0.092176765;-0.25498247;10.257957;10.261539941223834;
0;07:01:14:389;-0.094570965;-0.24540567;10.2495775;10.25295122040612;
0;07:01:14:399;-0.09935937;-0.24660277;10.229227;10.232681530335514;
0;07:01:14:410;-0.092176765;-0.24540567;10.240001;10.2433554349347;
0;07:01:14:421;-0.10175357;-0.23343466;10.247183;10.250346108152351;
0;07:01:14:432;-0.090979666;-0.24061728;10.25676;10.259985177250616;
0;07:01:14:442;-0.11851298;-0.22505496;10.25676;10.259913047139497;
0;07:01:14:452;-0.09816227;-0.23702596;10.253169;10.256378422223108;
0;07:01:14:463;-0.09696517;-0.24181437;10.271125;10.27442849604834;
0;07:01:14:473;-0.08619126;-0.24301147;10.279505;10.28273811122139;
0;07:01:14:484;-0.108936176;-0.24420857;10.260351;10.263834850930133;
0;07:01:14:494;-0.10055647;-0.24420857;10.275913;10.279306338170164;
0;07:01:14:505;-0.10055647;-0.24420857;10.274716;10.27810982749146;
0;07:01:14:515;-0.095768064;-0.25258827;10.267534;10.271087168767382;
0;07:01:14:526;-0.08259996;-0.24660277;10.2735195;10.276810728291009;
0;07:01:14:536;-0.10295067;-0.25139117;10.261548;10.265143396237216;
0;07:01:14:547;-0.10295067;-0.25737667;10.267534;10.271275467606023;
0;07:01:14:557;-0.09696517;-0.23822308;10.242394;10.245623514871903;
0;07:01:14:567;-0.11252748;-0.23942018;10.232818;10.236236635908169;
0;07:01:14:578;-0.10055647;-0.22744916;10.253169;10.25618464270671;
0;07:01:14:588;-0.11731588;-0.22744916;10.283096;10.28628073752281;
0;07:01:14:598;-0.11971009;-0.23942018;10.242394;10.245891957362868;
0;07:01:14:609;-0.10534488;-0.24540567;10.266336;10.269809468107502;
0;07:01:14:620;-0.12090719;-0.24540567;10.26514;10.268784592721708;
0;07:01:14:631;-0.12689269;-0.25378537;10.224439;10.228374836426049;
0;07:01:14:641;-0.092176765;-0.21308395;10.263943;10.266568075259878;
0;07:01:14:652;-0.11851298;-0.2669535;10.287885;10.292029947106105;
0;07:01:14:663;-0.11133038;-0.24899697;10.255563;10.259189115310768;
0;07:01:14:674;-0.094570965;-0.24061728;10.272323;10.275575689444933;
0;07:01:14:685;-0.095768064;-0.23343466;10.236409;10.239518179286822;
0;07:01:14:696;-0.08499416;-0.22864626;10.263943;10.266840800340251;
0;07:01:14:705;-0.12330139;-0.23822308;10.259154;10.262660325687936;
0;07:01:14:716;-0.12210429;-0.2645593;10.253169;10.257308587322816;
0;07:01:14:727;-0.11851298;-0.24301147;10.237606;10.241175504804849;
0;07:01:14:738;-0.11252748;-0.24779987;10.26514;10.268746701203442;
0;07:01:14:748;-0.10654198;-0.22864626;10.248381;10.251484461032224;
0;07:01:14:759;-0.08140286;-0.24420857;10.225636;10.228874953410077;
0;07:01:14:770;-0.10654198;-0.23343466;10.287885;10.291084015655745;
0;07:01:14:779;-0.09935937;-0.2681506;10.268731;10.272712293201183;
0;07:01:14:790;-0.10055647;-0.25258827;10.268731;10.272329431688073;
0;07:01:14:800;-0.10654198;-0.24660277;10.278308;10.28181803795065;
0;07:01:14:811;-0.09816227;-0.23582886;10.229227;10.232416096522037;
0;07:01:14:822;-0.10295067;-0.23702596;10.250774;10.254031249238105;
0;07:01:14:833;-0.11252748;-0.22026655;10.250774;10.253758183454767;
0;07:01:14:844;-0.11731588;-0.22625206;10.301053;10.304205500715549;
0;07:01:14:855;-0.09816227;-0.21428105;10.296265;10.298962024127192;
0;07:01:14:864;-0.108936176;-0.23702596;10.295067;10.298371225108207;
0;07:01:14:875;-0.12090719;-0.24301147;10.250774;10.254367177140347;
0;07:01:14:884;-0.11133038;-0.24540567;10.2735195;10.277053115545629;
0;07:01:14:895;-0.10414778;-0.21547815;10.262746;10.265535815822645;
0;07:01:14:905;-0.11492168;-0.22984336;10.267534;10.270749187834086;
0;07:01:14:916;-0.09696517;-0.24061728;10.26514;10.268417187693892;
0;07:01:14:927;-0.110133275;-0.24301147;10.275913;10.279376105587206;
0;07:01:14:938;-0.11971009;-0.24420857;10.283096;10.286692376029455;
0;07:01:14:948;-0.10295067;-0.23343466;10.263943;10.267113146630978;
0;07:01:14:958;-0.12689269;-0.22385786;10.279505;10.28272512688909;
0;07:01:14:969;-0.09696517;-0.23104046;10.280702;10.283754548071462;
0;07:01:14:979;-0.08619126;-0.23223756;10.235212;10.238209712168997;
0;07:01:14:990;-0.11971009;-0.22864626;10.235212;10.238466053749901;
0;07:01:15:000;-0.093373865;-0.25737667;10.272323;10.275970680441482;
0;07:01:15:011;-0.10175357;-0.2681506;10.28549;10.289488115247917;
0;07:01:15:021;-0.11133038;-0.22385786;10.287885;10.290922027295466;
0;07:01:15:032;-0.11851298;-0.28491;10.086772;10.091490879517591;
0;07:01:15:043;-0.664391;-0.05865794;11.452663;11.47206836891817;
0;07:01:15:053;-0.2681506;0.1436521;7.5692687;7.57537905308055;
0;07:01:15:063;-1.2952632;-0.7266402;10.456676;10.56161802322706;
0;07:01:15:073;-0.9636662;-0.51834464;10.653001;10.709050452616221;
0;07:01:15:083;-0.49559975;0.6404489;10.995371;11.025151714915948;
0;07:01:15:093;-0.9911995;-0.15322891;10.842142;10.888434519554274;
0;07:01:15:103;-0.4249708;0.059855044;11.174936;11.183174192051451;
0;07:01:15:113;0.02873042;0.17717093;10.245986;10.247557930672091;
0;07:01:15:124;-0.094570965;-0.25258827;10.0903635;10.093967683411217;
0;07:01:15:133;0.40462008;-0.5410896;9.773131;9.796458355624065;
