Round;Timestamp;AccX;AccY;
0;03:56:41:157;0.4189853;3.891775;
0;03:56:41:168;0.4189853;3.891775;
0;03:56:41:177;0.03232172;-1.2677298;
0;03:56:41:187;0.16639702;2.2589293;
0;03:56:41:197;-0.41299978;-1.4053963;
0;03:56:41:208;-0.034715924;-0.62728083;
0;03:56:41:217;-0.050278235;-0.30406362;
0;03:56:41:227;-0.02873042;-0.34715924;
0;03:56:41:237;0.47644615;3.4225113;
0;03:56:41:247;0.7146692;0.6440403;
0;03:56:41:258;0.8367735;0.9696517;
0;03:56:41:268;-0.22744916;1.4329298;
0;03:56:41:278;0.4369418;1.5993267;
0;03:56:41:288;0.4333505;1.0857705;
0;03:56:41:298;0.10055647;0.50158525;
0;03:56:41:308;0.19632454;0.25498247;
0;03:56:41:318;0.18195933;0.35194764;
0;03:56:41:328;0.15801731;-0.05626374;
0;03:56:41:338;0.30406362;-0.3172317;
0;03:56:41:349;0.3866636;-0.23582886;
0;03:56:41:359;0.29209262;-0.36631286;
0;03:56:41:369;0.14963761;-0.20470424;
0;03:56:41:379;0.18076223;-0.272939;
0;03:56:41:390;0.16519992;-0.2693477;
0;03:56:41:399;0.16759412;-0.25617957;
0;03:56:41:409;0.25977087;-0.17597382;
0;03:56:41:420;0.2717419;-0.1328782;
0;03:56:41:429;0.24061728;0.260968;
0;03:56:41:439;0.20350714;0.37469256;
0;03:56:41:449;0.22266077;0.61171854;
0;03:56:41:460;0.260968;0.61770403;
0;03:56:41:469;0.25258827;0.62728083;
0;03:56:41:479;0.19393034;0.62608373;
0;03:56:41:489;0.20829555;0.46806642;
0;03:56:41:500;0.21068975;0.32321724;
0;03:56:41:509;0.21787235;-0.035913024;
0;03:56:41:519;0.22505496;-0.07182605;
0;03:56:41:529;0.23463176;-0.020350715;
0;03:56:41:540;0.24181437;-0.039504327;
0;03:56:41:550;0.2681506;0.06703765;
0;03:56:41:560;0.2777274;0.12569559;
0;03:56:41:570;0.23104046;0.31603462;
0;03:56:41:581;0.24660277;0.40342298;
0;03:56:41:591;0.22266077;0.4309563;
0;03:56:41:601;0.19512744;0.36032736;
0;03:56:41:611;0.20470424;0.30406362;
0;03:56:41:621;0.20829555;0.20949265;
0;03:56:41:632;0.24181437;0.12210429;
0;03:56:41:642;0.22625206;0.05626374;
0;03:56:41:652;0.25617957;0.05626374;
0;03:56:41:662;0.24540567;0.10295067;
0;03:56:41:672;0.23942018;0.17118542;
0;03:56:41:683;0.22146365;0.20470424;
0;03:56:41:694;0.21787235;0.3184288;
0;03:56:41:703;0.20350714;0.33877954;
0;03:56:41:713;0.22026655;0.32561144;
0;03:56:41:723;0.22146365;0.260968;
0;03:56:41:733;0.25258827;0.19033903;
0;03:56:41:744;0.260968;0.11731588;
0;03:56:41:754;0.25857377;0.12449849;
0;03:56:41:764;0.22984336;0.1400608;
0;03:56:41:774;0.23463176;0.19273324;
0;03:56:41:784;0.22505496;0.24301147;
0;03:56:41:794;0.22266077;0.24899697;
0;03:56:41:804;0.22146365;0.29568392;
0;03:56:41:814;0.22385786;0.2837129;
0;03:56:41:824;0.23702596;0.24301147;
0;03:56:41:834;0.21906945;0.21547815;
0;03:56:41:844;0.23702596;0.14963761;
0;03:56:41:854;0.24061728;0.15801731;
0;03:56:41:864;0.23104046;0.14844051;
0;03:56:41:875;0.22625206;0.18315643;
0;03:56:41:885;0.21308395;0.22026655;
0;03:56:41:895;0.20111294;0.2693477;
0;03:56:41:905;0.21906945;0.2681506;
0;03:56:41:915;0.21428105;0.2741361;
0;03:56:41:925;0.23582886;0.22146365;
0;03:56:41:936;0.23104046;0.21428105;
0;03:56:41:946;0.23104046;0.16759412;
0;03:56:41:957;0.22625206;0.15322891;
0;03:56:41:967;0.23104046;0.17118542;
0;03:56:41:978;0.21188685;0.22146365;
0;03:56:41:988;0.23343466;0.23582886;
0;03:56:41:999;0.23223756;0.24779987;
0;03:56:42:009;0.21667525;0.24779987;
0;03:56:42:020;0.23582886;0.21667525;
0;03:56:42:030;0.21428105;0.19752164;
0;03:56:42:040;0.22505496;0.20590134;
0;03:56:42:051;0.23223756;0.18555063;
0;03:56:42:061;0.23463176;0.19393034;
0;03:56:42:071;0.23104046;0.18435353;
0;03:56:42:081;0.23702596;0.21068975;
0;03:56:42:091;0.22744916;0.24061728;
0;03:56:42:102;0.22984336;0.22026655;
0;03:56:42:112;0.23343466;0.23942018;
0;03:56:42:122;0.22026655;0.21188685;
0;03:56:42:132;0.17238252;0.2753332;
0;03:56:42:142;0.0023942017;0.4321534;
0;03:56:42:152;-2.0171149;2.822764;
0;03:56:42:162;3.095703;-0.34596214;
0;03:56:42:172;-2.6515784;0.61890113;
0;03:56:42:183;-0.108936176;-0.6655881;
0;03:56:42:193;-0.7254431;1.0582372;
0;03:56:42:203;0.94451255;-2.0159178;
0;03:56:42:213;0.05267244;-0.034715924;
0;03:56:42:223;-0.9684546;-0.45130703;
0;03:56:42:233;1.8614918;-0.7194576;
0;03:56:42:243;-0.20111294;0.053869538;
0;03:56:42:253;-0.8403648;0.21428105;
0;03:56:42:263;0.9600749;0.37588966;
0;03:56:42:273;0.15083471;0.61770403;
0;03:56:42:283;-0.2681506;0.60573304;
0;03:56:42:294;0.35793316;0.5722142;
0;03:56:42:304;0.37229836;0.38307226;
0;03:56:42:314;0.78888947;0.36750996;
0;03:56:42:324;-0.7697359;0.34117374;
0;03:56:42:334;-0.9756372;-0.25258827;
0;03:56:42:344;0.3866636;-0.5758055;
0;03:56:42:354;1.6280571;0.79248077;
0;03:56:42:364;2.9245174;0.48243165;
0;03:56:42:374;1.7645266;0.2896984;
0;03:56:42:384;0.91817635;-0.33758244;
0;03:56:42:394;0.1448492;0.24779987;
0;03:56:42:404;-0.10414778;0.4225766;
0;03:56:42:414;0.24660277;0.6464345;
0;03:56:42:424;-0.90381116;0.46686932;
0;03:56:42:435;-0.2633622;0.32441434;
0;03:56:42:444;0.5746084;0.22146365;
0;03:56:42:454;0.7493851;0.14963761;
0;03:56:42:465;0.46447513;0.36272156;
0;03:56:42:475;0.5734113;0.2789245;
0;03:56:42:485;0.23104046;0.04070143;
0;03:56:42:496;-0.092176765;-0.1352724;
0;03:56:42:505;0.32202014;-0.1352724;
0;03:56:42:515;0.33997664;-0.17717093;
0;03:56:42:526;-0.6572084;0.18794483;
0;03:56:42:536;0.2681506;0.044292733;
0;03:56:42:547;0.46088383;0.47884035;
0;03:56:42:556;0.41299978;0.35553896;
0;03:56:42:566;0.29568392;0.65242;
0;03:56:42:577;0.009576807;0.5626374;
0;03:56:42:587;-0.1604115;0.40821138;
0;03:56:42:597;-0.01316811;0.35434186;
0;03:56:42:608;0.4213795;0.10414778;
0;03:56:42:618;0.51355624;-0.1352724;
0;03:56:42:628;0.50876784;-0.25737667;
0;03:56:42:638;0.6835446;-0.29807812;
0;03:56:42:648;0.2837129;-0.059855044;
0;03:56:42:659;0.25977087;0.049081136;
0;03:56:42:669;0.06943185;0.15442601;
0;03:56:42:679;-0.20350714;0.15442601;
0;03:56:42:689;-0.19512744;0.2645593;
0;03:56:42:699;0.19273324;0.37588966;
0;03:56:42:709;0.51954174;0.49799395;
0;03:56:42:719;0.36391866;0.6739678;
0;03:56:42:729;1.3970166;0.7541735;
0;03:56:42:739;0.5554548;1.0761937;
0;03:56:42:749;-0.1400608;0.8367735;
0;03:56:42:759;-0.45130703;0.30765492;
0;03:56:42:770;-0.02873042;-0.272939;
0;03:56:42:780;-0.10534488;-0.2705448;
0;03:56:42:790;0.31603462;-0.21428105;
0;03:56:42:800;0.81761986;-0.4429273;
0;03:56:42:810;0.6548142;-0.1316811;
0;03:56:42:820;0.28491;0.37229836;
0;03:56:42:831;0.18076223;1.0115502;
0;03:56:42:841;-0.007182605;1.043872;
0;03:56:42:851;0.033518825;0.94211835;
0;03:56:42:861;0.061052144;0.25617957;
0;03:56:42:871;-0.076614454;0.29209262;
0;03:56:42:881;0.049081136;-0.33518824;
0;03:56:42:891;0.5590461;-0.4285621;
0;03:56:42:901;0.6943185;-0.107739076;
0;03:56:42:911;0.89303726;0.10414778;
0;03:56:42:922;0.736217;0.4141969;
0;03:56:42:932;0.6859388;0.60812724;
0;03:56:42:942;0.38187516;0.5602432;
0;03:56:42:952;-0.10414778;0.6548142;
0;03:56:42:962;-0.18076223;0.50278234;
0;03:56:42:972;0.40342298;0.34596214;
0;03:56:42:982;0.50996494;0.2837129;
0;03:56:42:992;-0.06584055;0.12449849;
0;03:56:43:003;-0.18435353;0.0011971008;
0;03:56:43:012;0.2789245;0.035913024;
0;03:56:43:022;0.2801216;-0.019153614;
0;03:56:43:033;0.59495914;0.050278235;
0;03:56:43:043;0.6332663;0.027533319;
0;03:56:43:053;0.557849;-0.029927522;
0;03:56:43:063;0.38187516;0.0047884034;
0;03:56:43:073;0.22385786;-0.017956512;
0;03:56:43:084;0.33877954;0.04309563;
0;03:56:43:093;0.35793316;0.076614454;
0;03:56:43:103;0.20350714;0.050278235;
0;03:56:43:114;0.005985504;0.022744916;
0;03:56:43:124;0.090979666;0.12210429;
0;03:56:43:134;0.11492168;0.15682021;
0;03:56:43:144;0.22505496;0.21068975;
0;03:56:43:154;0.25258827;0.29328972;
0;03:56:43:164;0.6967127;0.45250413;
0;03:56:43:174;0.5710171;0.4213795;
0;03:56:43:184;0.23463176;0.20470424;
0;03:56:43:194;0.32441434;0.14844051;
0;03:56:43:204;-0.061052144;-0.4261679;
0;03:56:43:214;-0.22744916;-0.5398925;
0;03:56:43:224;0.33758244;-0.6584055;
0;03:56:43:234;0.581791;-0.545878;
0;03:56:43:244;1.079785;-0.06823475;
0;03:56:43:254;0.49440265;-0.110133275;
0;03:56:43:264;-1.2006922;0.050278235;
0;03:56:43:274;2.1428106;0.19033903;
0;03:56:43:284;1.7262194;1.0019734;
0;03:56:43:294;0.21428105;1.0618285;
0;03:56:43:304;-0.92176765;0.9864111;
0;03:56:43:314;-0.142455;0.6715736;
0;03:56:43:325;0.12449849;0.34476504;
0;03:56:43:335;-0.20709845;0.34356794;
0;03:56:43:345;0.11611878;0.22266077;
0;03:56:43:356;0.23942018;-0.20350714;
0;03:56:43:366;0.108936176;-0.11611878;
0;03:56:43:377;0.4345476;-0.023942016;
0;03:56:43:387;0.4417302;0.1604115;
0;03:56:43:397;0.18914193;0.02633622;
0;03:56:43:407;0.19033903;0.025139118;
0;03:56:43:417;0.23463176;0.06943185;
0;03:56:43:428;0.17118542;0.36990416;
0;03:56:43:438;0.2765303;0.39624038;
0;03:56:43:448;0.30047232;0.4369418;
0;03:56:43:458;0.21188685;0.29807812;
0;03:56:43:468;0.15322891;0.24181437;
0;03:56:43:478;0.21787235;0.1604115;
0;03:56:43:488;0.22864626;0.08738836;
0;03:56:43:499;0.2669535;0.07182605;
0;03:56:43:508;0.31124622;0.09696517;
0;03:56:43:518;0.25737667;0.1316811;
0;03:56:43:529;0.22744916;0.2621651;
0;03:56:43:539;0.22984336;0.30286652;
0;03:56:43:549;0.22505496;0.32441434;
0;03:56:43:559;0.24301147;0.28491;
0;03:56:43:569;0.2717419;0.24061728;
0;03:56:43:580;0.25139117;0.19273324;
0;03:56:43:589;0.23942018;0.16759412;
0;03:56:43:599;0.24301147;0.092176765;
0;03:56:43:610;0.23343466;0.10055647;
0;03:56:43:620;0.22505496;0.16879122;
0;03:56:43:630;0.2681506;0.20829555;
0;03:56:43:640;0.24301147;0.24301147;
0;03:56:43:650;0.23223756;0.2681506;
0;03:56:43:661;0.25617957;0.24779987;
0;03:56:43:670;0.24660277;0.25378537;
0;03:56:43:680;0.24660277;0.21188685;
0;03:56:43:690;0.23343466;0.16400282;
0;03:56:43:700;0.24061728;0.108936176;
0;03:56:43:710;0.22625206;0.14604631;
0;03:56:43:720;0.24061728;0.1592144;
0;03:56:43:730;0.2873042;0.18674773;
0;03:56:43:741;0.2633622;0.23343466;
0;03:56:43:750;0.24301147;0.25977087;
0;03:56:43:760;0.24061728;0.24301147;
0;03:56:43:771;0.25139117;0.23582886;
0;03:56:43:781;0.24779987;0.20829555;
0;03:56:43:791;0.2681506;0.16998832;
0;03:56:43:801;0.24899697;0.1412579;
0;03:56:43:811;0.24420857;0.1364695;
0;03:56:43:822;0.2669535;0.16280572;
0;03:56:43:831;0.24061728;0.20231004;
0;03:56:43:841;0.24420857;0.22146365;
0;03:56:43:852;0.25857377;0.23104046;
0;03:56:43:862;0.24420857;0.25139117;
0;03:56:43:872;0.24301147;0.22744916;
0;03:56:43:882;0.23463176;0.21428105;
0;03:56:43:892;0.25498247;0.20231004;
0;03:56:43:903;0.24899697;0.18794483;
0;03:56:43:913;0.24420857;0.17717093;
0;03:56:43:923;0.23822308;0.18555063;
0;03:56:43:933;0.2645593;0.19393034;
0;03:56:43:943;0.24660277;0.21188685;
0;03:56:43:954;0.25019407;0.23463176;
0;03:56:43:964;0.25139117;0.23582886;
0;03:56:43:975;0.22505496;0.22385786;
0;03:56:43:985;0.25258827;0.19871874;
0;03:56:43:995;0.2657564;0.18435353;
0;03:56:44:005;0.23343466;0.17597382;
0;03:56:44:015;0.23463176;0.16998832;
0;03:56:44:025;0.2657564;0.21308395;
0;03:56:44:035;0.23582886;0.25258827;
0;03:56:44:046;0.24181437;0.22146365;
0;03:56:44:056;0.22385786;0.23702596;
0;03:56:44:066;0.24540567;0.24301147;
0;03:56:44:076;0.25977087;0.21308395;
0;03:56:44:086;0.260968;0.20829555;
0;03:56:44:097;0.25378537;0.17597382;
0;03:56:44:107;0.23822308;0.16879122;
0;03:56:44:118;0.24899697;0.19393034;
0;03:56:44:128;0.2753332;0.21068975;
0;03:56:44:139;0.25139117;0.22026655;
0;03:56:44:149;0.24301147;0.23942018;
0;03:56:44:159;0.25258827;0.20111294;
0;03:56:44:169;0.23463176;0.19752164;
0;03:56:44:179;0.24301147;0.18674773;
0;03:56:44:190;0.260968;0.19033903;
0;03:56:44:200;0.272939;0.19393034;
0;03:56:44:211;0.2621651;0.18794483;
0;03:56:44:220;0.25617957;0.18914193;
0;03:56:44:230;0.24540567;0.18674773;
0;03:56:44:241;0.24660277;0.19033903;
0;03:56:44:251;0.25378537;0.22864626;
0;03:56:44:262;0.24181437;0.19632454;
0;03:56:44:272;0.260968;0.19752164;
0;03:56:44:282;0.25019407;0.19273324;
0;03:56:44:292;0.23582886;0.18076223;
0;03:56:44:302;0.23822308;0.18315643;
0;03:56:44:312;0.24779987;0.19153613;
0;03:56:44:322;0.25857377;0.20111294;
0;03:56:44:333;0.24899697;0.21428105;
0;03:56:44:343;0.2621651;0.20350714;
0;03:56:44:354;0.25258827;0.20949265;
0;03:56:44:363;0.23822308;0.19512744;
0;03:56:44:373;0.24181437;0.19752164;
0;03:56:44:383;0.24779987;0.19393034;
0;03:56:44:393;0.24540567;0.19632454;
0;03:56:44:404;0.23942018;0.18794483;
0;03:56:44:414;0.23702596;0.20829555;
0;03:56:44:424;0.24540567;0.22385786;
0;03:56:44:434;0.24540567;0.23223756;
0;03:56:44:444;0.25019407;0.21428105;
0;03:56:44:455;0.24540567;0.21428105;
0;03:56:44:465;0.23223756;0.18794483;
0;03:56:44:475;0.24540567;0.18195933;
0;03:56:44:485;0.23702596;0.17357962;
0;03:56:44:495;0.260968;0.18195933;
0;03:56:44:506;0.24540567;0.22385786;
0;03:56:44:515;0.22984336;0.23702596;
0;03:56:44:526;0.22984336;0.22146365;
0;03:56:44:536;0.24660277;0.22146365;
0;03:56:44:546;0.24540567;0.21547815;
0;03:56:44:556;0.24899697;0.19991584;
0;03:56:44:566;0.25977087;0.20470424;
0;03:56:44:576;0.260968;0.19871874;
0;03:56:44:586;0.25378537;0.19512744;
0;03:56:44:597;0.24420857;0.21068975;
0;03:56:44:607;0.29209262;-0.09935937;
0;03:56:44:617;0.8439561;-0.50038815;
0;03:56:44:627;-0.034715924;-0.12330139;
0;03:56:44:637;1.0570401;0.092176765;
0;03:56:44:648;0.17357962;-0.5746084;
0;03:56:44:658;-0.5626374;-0.5734113;
0;03:56:44:668;-0.10534488;-0.8595184;
0;03:56:44:678;-0.075417355;-1.0618285;
0;03:56:44:689;0.34835634;-1.1552023;
0;03:56:44:699;0.5770026;-0.79008657;
0;03:56:44:710;0.7757214;-0.49559975;
0;03:56:44:720;0.866701;-0.7015011;
0;03:56:44:730;0.38307226;-2.7593174;
0;03:56:44:741;1.5478514;-1.946486;
0;03:56:44:751;1.1300632;0.37349546;
0;03:56:44:761;-0.8523358;1.0666169;
0;03:56:44:771;0.5686229;-0.07062895;
0;03:56:44:781;1.7202339;0.24660277;
0;03:56:44:792;0.23702596;-0.046686932;
0;03:56:44:802;-1.4377182;-1.186327;
0;03:56:44:812;-0.32800564;4.1922474;
0;03:56:44:822;-1.2318168;-0.34596214;
0;03:56:44:832;-1.234211;2.1703439;
0;03:56:44:842;-1.5167267;2.6132712;
0;03:56:44:852;-1.4772224;1.3479356;
0;03:56:44:862;1.1587936;7.6003933;
0;03:56:44:873;-0.19153613;0.11851298;
0;03:56:44:883;-1.0594343;1.7788919;
0;03:56:44:893;1.3587095;1.4688427;
0;03:56:44:903;1.0857705;0.8726865;
0;03:56:44:914;0.38187516;1.3299791;
0;03:56:44:924;0.8607155;1.3204023;
0;03:56:44:934;0.8834604;2.2661119;
0;03:56:44:944;0.20350714;1.8806454;
0;03:56:44:954;-0.045489833;2.111686;
0;03:56:44:965;-0.016759412;1.3108255;
0;03:56:44:975;0.094570965;1.2449849;
0;03:56:44:985;0.12808979;1.009156;
0;03:56:44:995;0.11971009;0.9624691;
0;03:56:45:005;0.16160862;0.90500826;
0;03:56:45:015;0.15083471;0.7649474;
0;03:56:45:025;0.16519992;0.5626374;
0;03:56:45:036;-0.06823475;0.4249708;
0;03:56:45:046;-0.25378537;0.45729253;
0;03:56:45:057;-0.23582886;0.30286652;
0;03:56:45:067;0.108936176;0.48243165;
0;03:56:45:077;0.2885013;0.38307226;
0;03:56:45:088;0.11971009;0.08499416;
0;03:56:45:098;0.06943185;-0.10534488;
0;03:56:45:108;0.15562311;-0.15682021;
0;03:56:45:119;0.25378537;-0.05626374;
0;03:56:45:129;0.41299978;0.04189853;
0;03:56:45:139;0.25378537;0.010773907;
0;03:56:45:150;0.088585466;0.19153613;
0;03:56:45:160;-0.044292733;0.24420857;
0;03:56:45:170;-0.050278235;0.22864626;
0;03:56:45:180;0.12330139;0.3854665;
0;03:56:45:191;0.142455;0.40222588;
0;03:56:45:200;0.073023155;0.5770026;
0;03:56:45:210;-0.075417355;0.5374983;
0;03:56:45:220;0.31244332;0.34356794;
