Round;Timestamp;AccX;AccY;AccZ;Acc Vector a;
0;07:01:30:000;-0.016759412;2.8000188;7.7799582;8.268502958475398;
0;07:01:30:010;-0.533907;1.3551182;8.9040365;9.022375901431856;
0;07:01:30:020;-1.7345991;-0.33638534;12.376825;12.502311797942362;
0;07:01:30:030;2.2254105;0.94092125;11.554418;11.804335906411943;
0;07:01:30:040;-1.8004397;1.7860745;11.283873;11.565354773212684;
0;07:01:30:050;-1.1408371;0.5363012;11.880029;11.946723929449629;
0;07:01:30:061;-1.067814;2.9987376;8.213309;8.80858119109415;
0;07:01:30:071;3.6152446;0.70509243;11.049241;11.647011539773505;
0;07:01:30:081;-1.270124;-1.7764976;12.310986;12.503180747657524;
0;07:01:30:091;-2.4600422;1.0905589;9.279925;9.662201562691907;
0;07:01:30:101;-0.23223756;2.0494366;9.165004;9.394222643060084;
0;07:01:30:111;-1.5526398;2.5713725;11.391612;11.780979305162703;
0;07:01:30:122;0.7517793;3.2728736;7.9954367;8.67201708428083;
0;07:01:30:133;3.004723;0.7433996;11.301829;11.718035134445936;
0;07:01:30:144;5.6922145;-0.3172317;15.073894;16.115961424826146;
0;07:01:30:155;-0.22026655;0.89543146;12.075156;12.110314353686991;
0;07:01:30:165;-2.5438392;2.0290859;11.177331;11.641349862079059;
0;07:01:30:175;-0.8283938;2.813187;3.78643;4.78929110256797;
0;07:01:30:185;3.9109285;3.618836;8.438364;9.979845718078042;
0;07:01:30:195;1.4640543;6.1530986;9.009381;11.007862402299947;
0;07:01:30:205;0.08499416;1.2521675;13.230358;13.28975256328572;
0;07:01:30:216;-4.9763484;2.8323407;12.101493;13.387767936525702;
0;07:01:30:227;0.724246;7.1754227;11.2312;13.347325294953176;
0;07:01:30:238;-3.1615434;3.6595373;10.978612;11.996561829438427;
0;07:01:30:249;-2.4492683;2.861071;11.2312;11.845864623023184;
0;07:01:30:260;0.050278235;5.2002063;6.827066;8.58216193146976;
0;07:01:30:271;-0.5710171;3.1962593;11.553221;12.000793430800732;
0;07:01:30:282;5.619191;2.183512;8.537724;10.451591071239353;
0;07:01:30:293;3.7122097;8.623915;7.807492;12.211033094035606;
0;07:01:30:304;0.724246;4.55856;7.917625;9.164812582527347;
0;07:01:30:315;0.40102878;11.748347;11.8261595;16.674607686656568;
0;07:01:30:325;-4.9045224;7.0305734;10.17416;13.30401598881571;
0;07:01:30:336;-4.495114;3.454833;7.703344;9.564697013239789;
0;07:01:30:346;0.5279215;8.921992;12.026075;14.983562363913371;
0;07:01:30:356;4.3155484;9.704897;10.78947;15.140067673888446;
0;07:01:30:366;-0.6548142;2.3080103;12.032061;12.268910661637495;
0;07:01:30:377;1.4257472;8.6095495;5.734113;10.442085766328832;
0;07:01:30:387;-1.851915;15.431827;10.3692875;18.684030268133984;
0;07:01:30:398;-4.5274353;9.28232;11.857284;15.72432201967753;
0;07:01:30:409;-3.0669725;8.614338;9.5492735;13.221261581728879;
0;07:01:30:419;3.715801;9.80665;18.762161;21.494098651850205;
0;07:01:30:430;0.18555063;8.7951;6.4667387;10.918192710694893;
0;07:01:30:441;1.7729063;14.340071;16.609774;22.015117652954697;
0;07:01:30:450;-8.585608;3.930082;6.739678;11.600925250806709;
0;07:01:30:461;5.17387;8.63828;9.425972;13.792670606201392;
0;07:01:30:472;9.2907;6.991069;14.514848;18.597659942107384;
0;07:01:30:482;0.82719666;16.666039;16.233885;23.280466115158916;
0;07:01:30:492;-8.76637;-1.3814543;4.8722005;10.12403092632898;
0;07:01:30:502;4.3358994;10.299856;16.243462;19.716416790696353;
0;07:01:30:513;6.0202203;9.198523;14.95179;18.558336812181608;
0;07:01:30:525;-0.16639702;8.300697;14.43105;16.648858181862373;
0;07:01:30:535;-2.7521348;6.205771;9.586384;11.746684154392119;
0;07:01:30:545;8.250419;9.7958765;12.834118;18.13127585313565;
0;07:01:30:555;7.1981673;4.811148;17.447744;19.477796384651757;
0;07:01:30:566;5.922058;11.409568;10.255563;16.44462123695627;
0;07:01:30:576;-1.6244658;2.4863784;11.467029;11.845409267016695;
0;07:01:30:587;-4.2461166;2.2744915;13.494918;14.328839033632761;
0;07:01:30:596;1.0031705;6.8222775;13.9677725;15.577178283513584;
0;07:01:30:607;-1.9608512;5.771223;10.251971;11.927064498597757;
0;07:01:30:618;-1.6675615;7.9906483;10.14543;13.021557466843383;
0;07:01:30:636;2.7832594;6.9599442;11.676521;13.87546407937294;
0;07:01:30:647;-1.3623008;2.6671407;8.149862;8.682727847768694;
0;07:01:30:658;4.1132383;7.6710224;17.000029;19.098803162150304;
0;07:01:30:669;3.156755;7.6375036;5.791574;10.091525656494344;
0;07:01:30:680;-6.4787097;2.1092918;10.936713;12.88543692946736;
0;07:01:30:691;6.1159883;4.3358994;5.5581393;9.332644391745216;
0;07:01:30:701;0.2885013;5.33907;11.288661;12.490907337470775;
0;07:01:30:711;3.6966474;9.060856;8.966286;13.272474697460401;
0;07:01:30:721;4.8865657;5.0505686;21.571756;22.687604919695413;
0;07:01:30:731;2.7880478;8.722076;4.8147397;10.34550825313213;
0;07:01:30:741;-5.6060233;1.3587095;8.929175;10.630322727532965;
0;07:01:30:752;4.223372;10.8229885;9.072827;14.740764765575205;
0;07:01:30:762;0.9516952;5.121197;5.8825536;7.857278168739303;
0;07:01:30:772;1.5801731;9.14585;14.53041;17.241703415553868;
0;07:01:30:783;5.619191;0.06464344;0.29328972;5.627211411548679;
0;07:01:30:793;-1.412579;4.52145;3.9731777;6.1826393224657075;
0;07:01:30:803;-7.5920134;2.136825;10.682928;13.278917534155646;
0;07:01:30:813;8.635885;6.2009826;15.805323;19.04833137633468;
0;07:01:30:824;0.19273324;0.51475334;3.7912183;3.8308554117892726;
0;07:01:30:835;-0.7625532;6.303933;12.392388;13.924523303982943;
0;07:01:30:846;3.0226796;4.909311;21.736958;22.48851364251558;
0;07:01:30:856;-0.30765492;0.010773907;2.086547;2.1091337843127436;
0;07:01:30:867;1.9572599;6.4128695;10.803835;12.715290170734468;
0;07:01:30:877;-0.25498247;2.7210102;15.125369;15.370286668773405;
0;07:01:30:888;2.2732944;1.2354081;18.83758;19.01442853287052;
0;07:01:30:899;2.3104045;5.9029045;9.652225;11.547626889000966;
0;07:01:30:909;1.7968484;5.8107276;9.653421;11.409722288264184;
0;07:01:30:920;1.7465701;0.2861071;5.783194;6.047949880240927;
0;07:01:30:930;-7.035362;4.185065;13.378799;15.684494156127375;
0;07:01:30:940;1.460463;0.93134445;11.384429;11.515449429419741;
0;07:01:30:950;-2.541445;0.8571242;15.2809925;15.51458447857914;
0;07:01:30:961;0.6799533;1.8483237;14.026431;14.164017792434958;
0;07:01:30:971;-0.6368576;-0.3890578;7.560889;7.597630643433712;
0;07:01:30:981;0.9816227;10.712855;9.615114;14.428419023326683;
0;07:01:30:992;4.7500963;-7.2352777;2.7808652;9.090977196871796;
0;07:01:31:002;-2.2996306;4.4603977;3.8510735;6.325678901273105;
0;07:01:31:012;4.8398786;4.80636;22.175097;23.20044044865784;
0;07:01:31:022;-0.9780314;2.6252422;12.314576;12.62922099341011;
0;07:01:31:032;6.513426;8.574833;13.323732;17.131091739851804;
0;07:01:31:042;2.2397757;0.9648633;14.499286;14.702953244380712;
0;07:01:31:052;3.1040826;7.690176;12.818556;15.267269174827588;
0;07:01:31:063;1.7202339;-3.3387144;0.557849;3.7970269569161412;
0;07:01:31:074;0.44532153;1.7250223;17.56147;17.651607693079704;
0;07:01:31:085;-7.4363904;1.5179238;6.4511766;9.961007965437032;
0;07:01:31:094;-0.7529764;0.7733272;11.332953;11.38423670418505;
0;07:01:31:105;-2.0769699;5.9052987;14.094666;15.422254934529677;
0;07:01:31:115;-4.911705;-5.8382607;-0.17357962;7.6315309664953945;
0;07:01:31:126;-0.6751649;8.032547;18.070238;19.786641186254773;
0;07:01:31:136;-6.64391;-1.555034;24.63035;25.558048970676538;
0;07:01:31:146;0.07062895;2.6527755;7.395689;7.857380122776219;
0;07:01:31:157;-7.4866686;-5.446809;7.1407065;11.692203656401707;
0;07:01:31:167;-14.833277;-5.106832;3.7134068;16.121265540791725;
0;07:01:31:178;-5.04578;4.2940006;13.320141;14.876978638426658;
0;07:01:31:189;-15.015236;-1.8351556;5.246893;16.01108929675773;
0;07:01:31:200;-7.089231;-1.745373;5.5282116;9.157763880021507;
0;07:01:31:211;-9.51336;-2.3774424;10.8182;14.601016994224238;
0;07:01:31:222;-12.059594;-1.6124948;5.795165;13.476568161230695;
0;07:01:31:233;-8.224083;3.5613751;16.010027;18.347748978502104;
0;07:01:31:243;-10.024523;-2.765303;6.1938;12.103764451260671;
0;07:01:31:254;-1.1061212;7.0066314;24.90329;25.893826182605768;
0;07:01:31:265;-13.268666;-1.2378023;6.3458314;14.760055476552195;
0;07:01:31:275;-6.2847795;-2.0853498;11.6825075;13.428630793941727;
0;07:01:31:286;-13.354857;4.2425256;0.49679685;14.021342766601052;
0;07:01:31:296;-13.998898;-6.9407907;3.514688;16.015515434076438;
0;07:01:31:306;-0.22744916;1.8854338;19.39064;19.483416425899232;
0;07:01:31:317;-11.212047;3.289633;8.6334915;14.528208687111086;
0;07:01:31:326;-7.5932107;-7.264008;13.119028;16.808674997624923;
0;07:01:31:336;-11.841722;8.091205;-1.9189527;14.469842000334642;
0;07:01:31:347;-4.771644;-0.7038953;16.94975;17.62265973076505;
0;07:01:31:357;0.961272;7.666234;28.130672;29.172416890387442;
0;07:01:31:368;-13.29141;5.4049106;25.347414;29.126723602767807;
0;07:01:31:379;-8.329428;-6.3913217;4.1000705;11.271154900909355;
0;07:01:31:389;-14.693215;0.25019407;5.5138464;15.695721299585369;
0;07:01:31:399;-1.2437878;-0.10414778;2.44448;2.744692448964783;
0;07:01:31:410;-0.49081135;-0.25737667;3.1160536;3.1649531865085345;
0;07:01:31:421;-9.621099;6.015432;19.44451;22.513105856428037;
0;07:01:31:431;-2.1990743;2.7389667;12.263102;12.756234832410753;
0;07:01:31:441;-10.295067;-4.189853;-0.29568392;11.118934263575571;
0;07:01:31:452;-2.4361002;-3.763685;19.033903;19.554778796480846;
0;07:01:31:462;-5.255273;10.036493;5.566519;12.622805565202771;
0;07:01:31:473;-1.3634979;-2.7473464;13.927072;14.260798060702108;
0;07:01:31:483;-9.791088;-3.594894;2.4588451;10.716090459050935;
0;07:01:31:493;-2.5797524;-4.7668557;17.438168;18.261098335049393;
0;07:01:31:504;-6.932411;-2.066196;12.460623;14.408143686547115;
0;07:01:31:514;-22.254105;0.5267244;7.357382;23.444694208358477;
0;07:01:31:525;-5.407305;-3.1471782;14.638149;15.919142498903344;
0;07:01:31:534;-10.746374;1.4640543;4.3718123;11.69362019110541;
0;07:01:31:545;-16.461334;-5.1020436;12.155362;21.089315216682447;
0;07:01:31:556;-4.131195;13.15135;0.22505496;13.786784403708355;
0;07:01:31:566;-10.095152;-6.633136;12.151771;17.13406288186908;
0;07:01:31:577;2.7988217;-0.93014735;30.466217;30.608641198452847;
0;07:01:31:587;-13.092692;-3.8115692;14.255077;19.726983287591295;
0;07:01:31:598;0.08499416;-1.673547;11.853693;11.97155059637809;
0;07:01:31:608;-2.4612393;-1.7142484;11.834539;12.208713009152264;
0;07:01:31:619;-23.241713;-1.4101849;17.560272;29.16383019596738;
0;07:01:31:629;3.6092591;6.339846;9.351752;11.860677655112147;
0;07:01:31:640;-20.821175;-5.8837504;-7.9631147;23.055390376018902;
0;07:01:31:651;-14.372393;1.0402806;1.0761937;14.450122682255213;
0;07:01:31:661;-6.1112;0.8391677;6.5720835;9.013503223300322;
0;07:01:31:672;-20.19988;-8.119935;0.30166942;21.77290839081729;
0;07:01:31:683;-23.751678;-1.1731589;31.255106;39.273402532558535;
0;07:01:31:694;7.630321;-3.477578;34.72909;35.72709295336576;
0;07:01:31:705;0.1592144;-8.289924;1.8818425;8.502323954912406;
0;07:01:31:715;-8.486248;16.88032;13.9151;23.464688656991196;
0;07:01:31:726;8.231265;-11.525687;-0.5386954;14.173403824648563;
0;07:01:31:736;-16.418238;-9.506178;20.578163;27.989046406585558;
0;07:01:31:746;-3.5781345;5.3247046;-1.4796166;6.583676132097744;
0;07:01:31:757;-16.381128;3.606865;19.04827;25.38084667479963;
0;07:01:31:768;-9.680955;7.9930425;12.714408;17.868010748414854;
0;07:01:31:778;-6.289568;-8.6095495;9.533711;14.30296041082656;
0;07:01:31:789;-4.699818;0.9888053;6.6774287;8.225210225395648;
0;07:01:31:799;-5.3618145;10.223241;7.299921;13.65842418690865;
0;07:01:31:810;-0.18315643;-2.3331497;16.970102;17.130718529413304;
0;07:01:31:821;-21.519085;-0.80086046;20.427328;29.681444694955257;
0;07:01:31:831;-12.698846;5.7005944;7.7129207;15.91372403143991;
0;07:01:31:841;-10.521319;-7.5213847;-2.7760768;13.227848754276549;
0;07:01:31:851;-17.414227;-3.7229836;20.460848;27.124936995894572;
0;07:01:31:861;4.531027;13.778631;-1.8555063;14.62271491563404;
0;07:01:31:871;-11.490971;-14.8512335;25.167849;31.4009897258306;
0;07:01:31:881;-1.210269;1.103727;1.8255788;2.4526928563559744;
0;07:01:31:892;-31.140184;-9.173384;4.3885717;32.75853449150694;
0;07:01:31:902;-7.541735;7.499837;8.153454;13.401646390520924;
0;07:01:31:913;-3.4009635;-5.8717794;-2.870648;7.367833421694194;
0;07:01:31:923;-18.626888;-8.013393;36.182373;41.47697526988995;
0;07:01:31:934;12.081141;5.9783216;3.0933087;13.8297817466213;
0;07:01:31:944;-17.859547;-19.536686;-16.08305;30.972729901618195;
0;07:01:31:955;-19.942503;13.409924;21.097706;31.978785158215633;
0;07:01:31:965;-4.96318;-13.540408;24.791958;28.68129954097922;
0;07:01:31:975;1.4652514;-8.081628;1.9740193;8.447273076225038;
0;07:01:31:986;-22.132;-0.6476316;6.8581905;23.179292526968574;
0;07:01:31:996;-12.369643;-0.89662856;11.186908;16.702063445569944;
0;07:01:32:006;3.4045548;-13.500903;11.508927;18.06435165681985;
0;07:01:32:017;-21.072567;-2.6072857;4.811148;21.771499005473014;
0;07:01:32:027;-9.229648;2.9747956;12.50731;15.826199714780216;
0;07:01:32:037;3.8774097;-12.215217;9.324219;15.848876123865958;
0;07:01:32:047;-14.617799;6.279991;-0.830788;15.931369933989757;
0;07:01:32:057;1.9764135;3.5553896;3.952827;5.67202329835828;
0;07:01:32:067;-7.48188;-3.2130187;7.49026;11.06372511809515;
0;07:01:32:078;-18.898632;2.7497406;0.45370123;19.103015505830896;
0;07:01:32:088;9.0476885;5.7281275;2.3930047;10.972628437576;
0;07:01:32:098;-8.9279785;-1.6232687;7.0952168;11.51893715088061;
0;07:01:32:109;-2.7461493;3.7086184;8.149862;9.365652077819966;
0;07:01:32:119;-8.201338;3.0693667;-1.5215151;8.888079823654834;
0;07:01:32:130;-0.58897364;-6.1387334;5.8574142;8.505306606966949;
0;07:01:32:140;-5.8634;-2.6036944;4.630386;7.911963045965436;
0;07:01:32:150;-11.954249;-19.488802;26.725277;35.17041381349529;
0;07:01:32:161;1.7082629;-17.129316;-5.746084;18.147978429945027;
0;07:01:32:172;-0.22385786;1.7537527;31.524454;31.57399137189253;
0;07:01:32:183;-22.109255;-17.35916;-11.155783;30.24253664872077;
0;07:01:32:192;-9.02614;-2.6994624;32.32771;33.67252754588115;
0;07:01:32:203;3.1244333;-11.398794;-12.46182;17.175317948464865;
0;07:01:32:214;-17.95292;-28.311436;-11.33894;35.38949363533795;
0;07:01:32:224;1.0414777;-3.9193082;19.15481;19.579386774733507;
0;07:01:32:235;-23.44522;-13.476961;8.477868;28.340450814052872;
0;07:01:32:245;-5.6670756;-10.001778;25.839422;28.28121331144029;
0;07:01:32:256;-10.805033;-10.633847;15.534778;21.70614517322802;
0;07:01:32:267;-5.9663506;-2.0685902;11.113884;12.78259837306141;
0;07:01:32:278;-0.37948096;-9.925163;21.304804;23.506329921676816;
0;07:01:32:288;1.8267759;-2.6635494;15.143326;15.483924651309238;
0;07:01:32:298;-7.463924;-7.9810715;7.539341;13.27589276144099;
0;07:01:32:308;-8.665813;-19.396626;-10.411186;23.658364285884048;
0;07:01:32:318;-4.9344497;-3.2273839;14.29937;15.467280647543795;
0;07:01:32:328;-4.1120415;-16.675615;-4.223372;17.686771876576643;
0;07:01:32:338;6.4751186;-8.003817;28.807035;30.591395785314372;
0;07:01:32:348;8.822633;2.9388826;18.887857;21.052958242994023;
0;07:01:32:359;-2.2110453;-9.659407;8.918402;13.33156942779818;
0;07:01:32:369;-2.1212628;-2.2697031;7.807492;8.402870832055843;
0;07:01:32:380;-3.8738184;-5.723339;0.641646;6.9408061079899745;
0;07:01:32:391;-2.0027497;-8.195353;3.1711202;9.012814194365067;
0;07:01:32:401;-7.6746135;-11.59871;7.8386164;15.964763464747968;
0;07:01:32:411;4.7536874;-16.48767;21.260511;27.321240735231992;
0;07:01:32:421;-0.9816227;-10.939108;10.189722;14.981925756231552;
0;07:01:32:431;-0.8834604;-13.929465;13.001713;19.07498470520766;
0;07:01:32:442;0.9684546;-14.103045;11.617864;18.297773982505188;
0;07:01:32:453;-3.0885203;-5.1259856;15.668853;16.772824351275787;
0;07:01:32:464;0.46447513;-8.48984;1.3323733;8.606295884840462;
0;07:01:32:475;2.3558946;-0.5566519;6.317101;6.765047326214927;
0;07:01:32:486;-8.537724;-5.693412;3.289633;10.776332806427371;
0;07:01:32:497;-7.6506715;-6.908469;8.523358;13.375625167924396;
0;07:01:32:508;11.634624;-2.2050598;17.42141;21.06495430340848;
0;07:01:32:519;-3.8642416;-9.848549;17.82124;20.72493323670828;
0;07:01:32:529;-6.5110316;-15.3767605;17.562666;24.23397454939939;
0;07:01:32:540;-6.8330517;-11.232397;12.927492;18.438475709087488;
0;07:01:32:550;-12.218808;-13.314156;12.882002;22.192610546995706;
0;07:01:32:561;-11.61547;-11.22282;15.614984;22.465496819863148;
0;07:01:32:572;-3.4608185;-6.9467764;4.6016555;9.022760222147499;
0;07:01:32:582;13.978547;-5.8023477;-0.557849;15.145237522221043;
0;07:01:32:593;5.345055;-1.0905589;0.36272156;5.467220593897677;
0;07:01:32:603;-6.5924344;3.5541923;17.03235;18.606273684167828;
0;07:01:32:614;-3.7433343;0.089782566;14.651318;15.122225924742207;
0;07:01:32:625;-8.451532;-9.045294;9.664195;15.70485259464511;
0;07:01:32:636;1.1336545;-16.763002;3.9576154;17.261117200001497;
0;07:01:32:646;-3.0502129;-11.650186;24.988283;27.738870674363483;
0;07:01:32:656;-7.3298483;-12.791022;15.048755;21.066607247441834;
0;07:01:32:667;0.7685388;-12.65575;10.20289;16.274447317744677;
0;07:01:32:678;5.9124813;-11.528081;9.524135;16.079901505353664;
0;07:01:32:689;0.7661445;-1.7142484;15.150508;15.266417624317702;
0;07:01:32:700;-9.986216;-7.404069;2.8550856;12.755244354575176;
0;07:01:32:710;-12.285846;-2.019509;7.807492;14.696167551380265;
0;07:01:32:720;-7.9475527;-1.1599907;6.179435;10.13383343449679;
0;07:01:32:731;-8.050503;0.8882488;10.800244;13.499809546363457;
0;07:01:32:741;-5.9603653;1.6065093;9.628283;11.437248519050526;
0;07:01:32:751;-3.74094;-5.329493;12.038046;13.686222382581278;
0;07:01:32:762;-0.51834464;-2.1655555;10.9187565;11.143498503563672;
0;07:01:32:773;-0.14604631;-1.270124;11.455058;11.526183465199463;
0;07:01:32:783;0.142455;-1.7824832;12.73835;12.863246256215687;
0;07:01:32:794;1.7513585;-1.4077905;12.679692;12.877256325349355;
0;07:01:32:805;3.5122938;-0.533907;10.437522;11.025566906529185;
0;07:01:32:816;2.099715;2.0123265;5.1547165;5.918561103811532;
0;07:01:32:825;-1.0115502;1.7525556;7.2424603;7.51983486602954;
0;07:01:32:836;2.5677812;-1.1192893;10.995371;11.346562985201661;
0;07:01:32:847;3.2154129;-2.3463178;12.78384;13.389199393555636;
0;07:01:32:857;0.47644615;-1.7741034;11.197681;11.347357058233042;
0;07:01:32:867;-1.4077905;-1.009156;10.381259;10.524771035936446;
0;07:01:32:878;-0.997185;-0.35434186;9.527725;9.58631753207057;
0;07:01:32:888;-0.0047884034;-0.22026655;9.907207;9.909655830881485;
0;07:01:32:899;-0.18794483;-0.4417302;10.089166;10.100579847555087;
0;07:01:32:908;-0.5542577;-0.25617957;10.058042;10.07655859314353;
0;07:01:32:919;-0.12569559;-0.49919105;10.394426;10.407165303801248;
0;07:01:32:929;0.48602295;-0.30526072;10.590752;10.606291332625156;
0;07:01:32:939;0.7433996;-0.40462008;10.66138;10.694923009252012;
0;07:01:32:950;0.91578215;0.0047884034;10.067618;10.109184817569677;
0;07:01:32:961;1.3132197;-0.005985504;10.200497;10.284683349957193;
0;07:01:32:971;0.6871359;-0.12808979;10.314221;10.337878263441976;
0;07:01:32:982;-0.22744916;-0.1436521;10.177752;10.181306231620344;
0;07:01:32:992;0.051475335;-0.17118542;10.499771;10.501292557858875;
0;07:01:33:002;0.21428105;-0.09816227;10.366894;10.36957270213688;
0;07:01:33:012;0.021547815;0.04189853;10.200497;10.20060551659917;
0;07:01:33:023;-0.130484;-0.08259996;10.04607;10.047256960808927;
0;07:01:33:033;0.11492168;-0.16759412;10.317812;10.31981311776742;
0;07:01:33:043;0.34476504;-0.022744916;10.255563;10.261381204003055;
0;07:01:33:053;0.31364042;0.01436521;10.181343;10.186182978399396;
0;07:01:33:063;0.39384618;-0.021547815;10.255563;10.263145019481989;
0;07:01:33:074;0.37110126;-0.19991584;10.334572;10.343164709767457;
0;07:01:33:084;0.33399114;-0.21188685;10.20289;10.210554563759587;
0;07:01:33:094;0.30765492;-0.23223756;10.181343;10.188637137575927;
0;07:01:33:105;0.2693477;-0.31004912;10.295067;10.303255873946055;
0;07:01:33:115;0.15203181;-0.4309563;10.313024;10.323143477631492;
0;07:01:33:126;0.039504327;-0.46926352;10.261548;10.272348370856884;
0;07:01:33:137;0.06584055;-0.4429273;10.266336;10.276098009829274;
0;07:01:33:147;0.17836803;-0.50038815;10.220847;10.234642992078081;
0;07:01:33:158;0.19991584;-0.51235914;10.230424;10.245196449701135;
0;07:01:33:168;0.24899697;-0.49799395;10.240001;10.255126043518775;
0;07:01:33:178;0.29927522;-0.51714754;10.296265;10.313587108301716;
0;07:01:33:189;0.31364042;-0.49081135;10.238804;10.255358156136944;
0;07:01:33:199;0.31244332;-0.48722005;10.248381;10.264711940345025;
0;07:01:33:210;0.2801216;-0.50397944;10.238804;10.255026724495513;
0;07:01:33:221;0.21906945;-0.49559975;10.248381;10.262695266036848;
0;07:01:33:231;0.18794483;-0.44771573;10.224439;10.235961977388303;
0;07:01:33:242;0.18555063;-0.44532153;10.2735195;10.284840614815963;
0;07:01:33:251;0.17238252;-0.39025488;10.244789;10.253668524030001;
0;07:01:33:261;0.20829555;-0.37828386;10.257957;10.267043295883717;
0;07:01:33:271;0.24540567;-0.35673606;10.257957;10.267091968529082;
0;07:01:33:282;0.24779987;-0.32441434;10.234015;10.242153979493203;
0;07:01:33:293;0.25139117;-0.29927522;10.244789;10.252242052451297;
0;07:01:33:304;0.24660277;-0.30166942;10.244789;10.25219591390688;
0;07:01:33:315;0.24420857;-0.29448682;10.2735195;10.28064037243231;
0;07:01:33:325;0.22625206;-0.25498247;10.251971;10.257636970128038;
0;07:01:33:336;0.17836803;-0.272939;10.236409;10.241600502820592;
0;07:01:33:346;0.22984336;-0.2717419;10.269928;10.276093183962876;
0;07:01:33:357;0.22505496;-0.24779987;10.272323;10.277775417934754;
0;07:01:33:367;0.24420857;-0.260968;10.263943;10.270163451679762;
0;07:01:33:378;0.24061728;-0.2693477;10.243592;10.249957573035287;
0;07:01:33:389;0.25258827;-0.2896984;10.250774;10.257977614341344;
0;07:01:33:399;0.21667525;-0.29807812;10.231621;10.238254795964489;
0;07:01:33:409;0.23343466;-0.3184288;10.29387;10.301439306933453;
0;07:01:33:420;0.21428105;-0.35075054;10.257957;10.266189071974246;
0;07:01:33:430;0.21428105;-0.37229836;10.274716;10.283691858340791;
0;07:01:33:441;0.23582886;-0.37229836;10.2495775;10.25904781808668;
0;07:01:33:452;0.23223756;-0.40342298;10.250774;10.261338080586837;
0;07:01:33:462;0.25617957;-0.39025488;10.235212;10.24585286423377;
0;07:01:33:473;0.24779987;-0.41060558;10.261548;10.272749056067967;
0;07:01:33:483;0.2669535;-0.39264908;10.243592;10.254590378963561;
0;07:01:33:493;0.23822308;-0.39025488;10.259154;10.269337347208984;
0;07:01:33:503;0.23104046;-0.3878607;10.245986;10.255927628141292;
0;07:01:33:513;0.21428105;-0.39983168;10.206482;10.21655772546764;
0;07:01:33:523;0.21188685;-0.37110126;10.220847;10.229776295651925;
0;07:01:33:534;0.21787235;-0.34955344;10.201694;10.210005352082376;
0;07:01:33:545;0.22625206;-0.34476504;10.253169;10.26145852829556;
0;07:01:33:556;0.24540567;-0.33758244;10.271125;10.27960061985915;
0;07:01:33:567;0.25139117;-0.34835634;10.281899;10.290869760484101;
0;07:01:33:577;0.24301147;-0.33638534;10.241198;10.249601775086267;
0;07:01:33:588;0.21547815;-0.33039984;10.234015;10.2416142842314;
0;07:01:33:598;0.22625206;-0.30645782;10.251971;10.259045587062271;
0;07:01:33:609;0.22146365;-0.3184288;10.287885;10.295193663707458;
0;07:01:33:620;0.23582886;-0.32680854;10.287885;10.295775382294247;
0;07:01:33:631;0.22505496;-0.3172317;10.222044;10.22944105185608;
0;07:01:33:642;0.23343466;-0.33399114;10.255563;10.263654592337971;
0;07:01:33:652;0.21906945;-0.33758244;10.260351;10.268240353085355;
0;07:01:33:663;0.22146365;-0.35434186;10.237606;10.246130236067328;
0;07:01:33:673;0.23463176;-0.33638534;10.260351;10.26854461074458;
0;07:01:33:684;0.23104046;-0.34835634;10.245986;10.254509282863038;
0;07:01:33:695;0.21787235;-0.34715924;10.255563;10.263749739535756;
0;07:01:33:704;0.21787235;-0.36631286;10.2495775;10.258435383673092;
0;07:01:33:715;0.22026655;-0.35673606;10.236409;10.244991660610395;
0;07:01:33:726;0.21787235;-0.36511576;10.244789;10.253608254598452;
0;07:01:33:736;0.21188685;-0.37828386;10.255563;10.264724204199608;
0;07:01:33:746;0.20231004;-0.35314476;10.248381;10.256458759682237;
0;07:01:33:757;0.22625206;-0.36272156;10.271125;10.280017349881623;
0;07:01:33:767;0.23463176;-0.34476504;10.250774;10.259253813916457;
0;07:01:33:778;0.22266077;-0.37110126;10.262746;10.271866710950793;
0;07:01:33:789;0.22505496;-0.34835634;10.247183;10.255572037312204;
0;07:01:33:799;0.22026655;-0.35434186;10.269928;10.278399318654191;
0;07:01:33:810;0.23942018;-0.33638534;10.263943;10.272244019316462;
0;07:01:33:821;0.22026655;-0.34237084;10.260351;10.268424246154979;
0;07:01:33:831;0.22505496;-0.32680854;10.232818;10.240508360165006;
0;07:01:33:842;0.22385786;-0.35434186;10.269928;10.278476886055053;
0;07:01:33:852;0.23104046;-0.32561144;10.25676;10.264527237490272;
0;07:01:33:862;0.23104046;-0.34715924;10.259154;10.267625866293326;
0;07:01:33:872;0.22146365;-0.33638534;10.277111;10.284999360866648;
0;07:01:33:883;0.23104046;-0.34596214;10.287885;10.296292602554663;
0;07:01:33:893;0.22505496;-0.34476504;10.278308;10.286550714906895;
0;07:01:33:904;0.23942018;-0.34955344;10.218452;10.227232419329502;
0;07:01:33:915;0.21787235;-0.35434186;10.259154;10.267583512160941;
0;07:01:33:925;0.24061728;-0.34476504;10.242394;10.251019682988401;
0;07:01:33:935;0.22984336;-0.34596214;10.261548;10.26995061726941;
0;07:01:33:945;0.23343466;-0.36750996;10.253169;10.262408677320913;
0;07:01:33:955;0.21787235;-0.34715924;10.266336;10.274515004093184;
0;07:01:33:965;0.21906945;-0.36032736;10.254366;10.26303314050793;
0;07:01:33:975;0.20231004;-0.35194764;10.281899;10.289910005670832;
0;07:01:33:985;0.24779987;-0.34835634;10.217256;10.226195070151604;
0;07:01:33:995;0.24420857;-0.33399114;10.259154;10.267493973463884;
0;07:01:34:005;0.23582886;-0.36391866;10.278308;10.287451824385984;
0;07:01:34:015;0.23942018;-0.35553896;10.267534;10.27647739008013;
0;07:01:34:026;0.22146365;-0.36391866;10.248381;10.257230859842698;
0;07:01:34:036;0.22026655;-0.34955344;10.226832;10.235175228137699;
0;07:01:34:047;0.23223756;-0.36152446;10.245986;10.254992130003114;
0;07:01:34:058;0.23104046;-0.34835634;10.269928;10.278431236411548;
0;07:01:34:068;0.22625206;-0.32680854;10.287885;10.295560483714722;
0;07:01:34:078;0.22266077;-0.35314476;10.266336;10.274821303547046;
0;07:01:34:089;0.21906945;-0.35553896;10.257957;10.266454747312398;
0;07:01:34:100;0.23343466;-0.36511576;10.286688;10.295812062810532;
0;07:01:34:111;0.23223756;-0.35314476;10.28549;10.294170574404788;
0;07:01:34:122;0.23343466;-0.37110126;10.212467;10.221873328110533;
0;07:01:34:133;0.22744916;-0.35793316;10.232818;10.24160162023297;
0;07:01:34:143;0.23942018;-0.34356794;10.26514;10.273677738992399;
0;07:01:34:154;0.22026655;-0.34237084;10.238804;10.246894179800591;
0;07:01:34:165;0.21068975;-0.35673606;10.237606;10.245986152575531;
0;07:01:34:175;0.23463176;-0.33877954;10.259154;10.267427469112995;
0;07:01:34:186;0.23702596;-0.34356794;10.2495775;10.258072814195078;
0;07:01:34:196;0.19991584;-0.34955344;10.25676;10.264661398244243;
0;07:01:34:207;0.22984336;-0.36032736;10.242394;10.251307706453007;
0;07:01:34:218;0.24420857;-0.33279404;10.25676;10.265062383507695;
0;07:01:34:229;0.24540567;-0.34955344;10.257957;10.266844887445759;
0;07:01:34:239;0.23343466;-0.33279404;10.267534;10.27557791688034;
0;07:01:34:250;0.22385786;-0.33039984;10.269928;10.277679658255304;
0;07:01:34:260;0.23463176;-0.34955344;10.263943;10.27257303872489;
0;07:01:34:271;0.20949265;-0.34117374;10.272323;10.280121622516461;
0;07:01:34:281;0.22146365;-0.35553896;10.229227;10.237799477767313;
0;07:01:34:292;0.22864626;-0.33638534;10.257957;10.26601814434589;
0;07:01:34:303;0.22864626;-0.38187516;10.218452;10.228141365539344;
0;07:01:34:313;0.22864626;-0.35075054;10.26514;10.27367513983707;
0;07:01:34:323;0.21428105;-0.33279404;10.257957;10.265591184423947;
0;07:01:34:334;0.22625206;-0.34955344;10.253169;10.261620610017957;
0;07:01:34:344;0.23343466;-0.36152446;10.255563;10.264587442810049;
0;07:01:34:355;0.21667525;-0.36391866;10.277111;10.28583459178261;
0;07:01:34:365;0.23104046;-0.33997664;10.2495775;10.257816590702726;
0;07:01:34:376;0.23104046;-0.36631286;10.259154;10.268291249072615;
0;07:01:34:387;0.22146365;-0.34715924;10.245986;10.254257434462358;
0;07:01:34:397;0.21188685;-0.34835634;10.224439;10.232565217489492;
0;07:01:34:408;0.23223756;-0.35314476;10.224439;10.233170999073995;
0;07:01:34:418;0.21428105;-0.35075054;10.255563;10.26379619780794;
0;07:01:34:429;0.23104046;-0.36511576;10.268731;10.277817358908745;
0;07:01:34:439;0.23702596;-0.33758244;10.272323;10.280601040380121;
0;07:01:34:450;0.21667525;-0.34715924;10.230424;10.238605399532876;
0;07:01:34:460;0.22146365;-0.34596214;10.207679;10.215940876788926;
0;07:01:34:470;0.24181437;-0.35314476;10.234015;10.242961048329612;
0;07:01:34:481;0.20709845;-0.35314476;10.243592;10.251769866729873;
0;07:01:34:492;0.23223756;-0.35913026;10.268731;10.277633262740913;
0;07:01:34:503;0.22625206;-0.36511576;10.242394;10.251397386525646;
0;07:01:34:514;0.22984336;-0.35075054;10.25676;10.265328831225213;
0;07:01:34:524;0.22744916;-0.35913026;10.266336;10.27513390521114;
0;07:01:34:535;0.21428105;-0.35194764;10.281899;10.290152455081904;
0;07:01:34:546;0.21428105;-0.32920274;10.280702;10.28820268866182;
0;07:01:34:556;0.21787235;-0.34596214;10.251971;10.260120512791831;
0;07:01:34:567;0.21787235;-0.33758244;10.236409;10.244291250977946;
0;07:01:34:578;0.21787235;-0.33997664;10.248381;10.256332674222127;
0;07:01:34:589;0.23822308;-0.34955344;10.267534;10.276244269628009;
0;07:01:34:599;0.23223756;-0.33758244;10.260351;10.268529379501029;
0;07:01:34:610;0.23942018;-0.34237084;10.245986;10.254499982810518;
0;07:01:34:621;0.22625206;-0.33399114;10.266336;10.274259561929435;
0;07:01:34:631;0.21068975;-0.33518824;10.267534;10.275163976841274;
0;07:01:34:641;0.23343466;-0.33638534;10.238804;10.246987621250383;
0;07:01:34:652;0.22385786;-0.33997664;10.234015;10.242107423051763;
0;07:01:34:663;0.22984336;-0.35793316;10.263943;10.272753512164092;
0;07:01:34:674;0.22625206;-0.33758244;10.245986;10.254042409810264;
0;07:01:34:684;0.22625206;-0.34117374;10.259154;10.267318609106198;
0;07:01:34:695;0.23582886;-0.34715924;10.248381;10.256970152366778;
0;07:01:34:705;0.22625206;-0.34476504;10.28549;10.293753305607202;
0;07:01:34:715;0.24061728;-0.34237084;10.267534;10.276058289169168;
0;07:01:34:726;0.23223756;-0.32920274;10.255563;10.263472843871831;
0;07:01:34:736;0.22744916;-0.34955344;10.26514;10.273607561567726;
0;07:01:34:747;0.24061728;-0.34596214;10.214862;10.223551051065867;
0;07:01:34:758;0.23582886;-0.34596214;10.247183;10.255733096192198;
0;07:01:34:768;0.25019407;-0.35673606;10.250774;10.26003090896561;
0;07:01:34:779;0.22625206;-0.35793316;10.272323;10.281046671146711;
0;07:01:34:789;0.22744916;-0.34715924;10.247183;10.25558394013354;
0;07:01:34:800;0.21787235;-0.33877954;10.267534;10.275431647596786;
0;07:01:34:811;0.22385786;-0.35434186;10.222044;10.230632814167475;
0;07:01:34:821;0.21667525;-0.35673606;10.241198;10.24969928579462;
0;07:01:34:831;0.22984336;-0.33399114;10.243592;10.25161246665635;
0;07:01:34:842;0.22625206;-0.35075054;10.245986;10.2544843587033;
0;07:01:34:853;0.22744916;-0.34476504;10.232818;10.241149803219958;
0;07:01:34:864;0.24899697;-0.33877954;10.259154;10.267765930907952;
0;07:01:34:874;0.22744916;-0.33638534;10.225636;10.233694738246077;
0;07:01:34:885;0.22625206;-0.34476504;10.272323;10.280596587685487;
0;07:01:34:896;0.22744916;-0.32321724;10.259154;10.26676425970022;
0;07:01:34:906;0.21428105;-0.34715924;10.278308;10.286401264016268;
0;07:01:34:916;0.22505496;-0.35194764;10.257957;10.266460320847262;
0;07:01:34:926;0.23822308;-0.35434186;10.267534;10.276408345401876;
0;07:01:34:937;0.24540567;-0.35075054;10.254366;10.263297410806908;
0;07:01:34:947;0.22744916;-0.35434186;10.234015;10.242673535020998;
0;07:01:34:958;0.23343466;-0.35075054;10.241198;10.249860809125424;
0;07:01:34:969;0.22984336;-0.35194764;10.255563;10.264173802843581;
0;07:01:34:979;0.21547815;-0.33159694;10.281899;10.289501461782843;
0;07:01:34:989;0.23582886;-0.33997664;10.262746;10.27108308334998;
0;07:01:35:000;0.24540567;-0.32920274;10.272323;10.280526086430088;
0;07:01:35:011;0.24061728;-0.35194764;10.280702;10.2895377939291;
0;07:01:35:021;0.23463176;-0.35434186;10.283096;10.29187464536079;
0;07:01:35:031;0.23104046;-0.33518824;10.263943;10.272013030997593;
0;07:01:35:041;0.24061728;-0.34596214;10.267534;10.27617856434144;
0;07:01:35:052;0.25139117;-0.34596214;10.236409;10.245338310289473;
0;07:01:35:062;0.23223756;-0.3196259;10.232818;10.2404420530748;
0;07:01:35:073;0.24540567;-0.3196259;10.255563;10.263476560641616;
0;07:01:35:083;0.22984336;-0.33997664;10.243592;10.251809309395632;
0;07:01:35:093;0.23822308;-0.32561144;10.243592;10.251534323878175;
0;07:01:35:104;0.22026655;-0.33279404;10.241198;10.24897053828952;
0;07:01:35:115;0.22744916;-0.35913026;10.254366;10.263173639488755;
0;07:01:35:126;0.22984336;-0.32441434;10.261548;10.269247452335769;
0;07:01:35:137;0.21787235;-0.34237084;10.250774;10.258804261724224;
0;07:01:35:147;0.23582886;-0.33758244;10.229227;10.237512564738742;
0;07:01:35:157;0.23702596;-0.33997664;10.292673;10.301013815160001;
0;07:01:35:168;0.22864626;-0.34715924;10.279505;10.287906428266044;
0;07:01:35:179;0.20829555;-0.32800564;10.242394;10.249762183431113;
0;07:01:35:189;0.21068975;-0.36032736;10.245986;10.25448473070613;
0;07:01:35:200;0.21308395;-0.34955344;10.250774;10.258945934143892;
0;07:01:35:210;0.23702596;-0.35314476;10.218452;10.22729993103725;
0;07:01:35:220;0.23463176;-0.33279404;10.263943;10.27201637330934;
0;07:01:35:231;0.24061728;-0.33638534;10.287885;10.296194421623511;
0;07:01:35:241;0.23343466;-0.33877954;10.225636;10.2339086994201;
0;07:01:35:252;0.24660277;-0.34955344;10.244789;10.253716516101765;
0;07:01:35:263;0.22984336;-0.34476504;10.259154;10.267518494512501;
0;07:01:35:274;0.22146365;-0.34117374;10.262746;10.27080304268374;
0;07:01:35:284;0.21787235;-0.35793316;10.259154;10.267707973368116;
0;07:01:35:294;0.23702596;-0.34835634;10.267534;10.276175965818645;
0;07:01:35:305;0.24181437;-0.32920274;10.303447;10.311540408716146;
0;07:01:35:315;0.21667525;-0.32680854;10.243592;10.251094480557498;
0;07:01:35:325;0.24181437;-0.34715924;10.248381;10.257109618673878;
0;07:01:35:336;0.24779987;-0.34715924;10.250774;10.259644227877358;
0;07:01:35:346;0.23942018;-0.33039984;10.303447;10.311523021311787;
0;07:01:35:357;0.22744916;-0.34117374;10.272323;10.280503080652649;
0;07:01:35:367;0.24181437;-0.33518824;10.248381;10.256711297874636;
0;07:01:35:377;0.23343466;-0.34117374;10.290278;10.298578656837758;
0;07:01:35:388;0.24301147;-0.33159694;10.269928;10.278153251685671;
0;07:01:35:399;0.22744916;-0.36032736;10.262746;10.271588177182759;
0;07:01:35:410;0.25019407;-0.35673606;10.228029;10.237306131429952;
0;07:01:35:419;0.24061728;-0.34715924;10.277111;10.285787491310826;
0;07:01:35:430;0.24420857;-0.35793316;10.26514;10.274280725256961;
0;07:01:35:441;0.22266077;-0.34955344;10.262746;10.271110938436404;
0;07:01:35:451;0.23822308;-0.34117374;10.238804;10.247256028006504;
0;07:01:35:461;0.24540567;-0.35075054;10.2735195;10.282434273548446;
0;07:01:35:472;0.23104046;-0.36391866;10.295067;10.304087403750081;
0;07:01:35:482;0.22625206;-0.37588966;10.254366;10.263747137866297;
0;07:01:35:493;0.25139117;-0.34715924;10.235212;10.244183262244444;
0;07:01:35:503;0.21787235;-0.35194764;10.283096;10.291423923445691;
0;07:01:35:513;0.23702596;-0.33997664;10.247183;10.255560506440862;
0;07:01:35:523;0.23343466;-0.35314476;10.260351;10.269079918881296;
0;07:01:35:534;0.22385786;-0.33877954;10.280702;10.28871769425093;
0;07:01:35:545;0.24061728;-0.36272156;10.268731;10.277952088490235;
0;07:01:35:555;0.23223756;-0.32321724;10.261548;10.269263425449244;
0;07:01:35:566;0.22864626;-0.33159694;10.266336;10.274235056969419;
0;07:01:35:576;0.20590134;-0.34835634;10.244789;10.252777839696703;
0;07:01:35:587;0.24301147;-0.35314476;10.248381;10.257342430204266;
0;07:01:35:597;0.24420857;-0.35194764;10.257957;10.266898019669284;
0;07:01:35:608;0.22146365;-0.36032736;10.255563;10.26428009466891;
0;07:01:35:618;0.22625206;-0.34476504;10.262746;10.271027372950499;
0;07:01:35:629;0.22864626;-0.36870706;10.277111;10.28626441998131;
0;07:01:35:639;0.23582886;-0.35553896;10.236409;10.24529623635662;
0;07:01:35:650;0.24540567;-0.35075054;10.2495775;10.258513102026683;
0;07:01:35:660;0.25378537;-0.36750996;10.254366;10.264087579295552;
0;07:01:35:671;0.22625206;-0.35553896;10.237606;10.246276179037405;
0;07:01:35:682;0.22266077;-0.35553896;10.251971;10.260550674621921;
0;07:01:35:693;0.23343466;-0.36631286;10.228029;10.237248374073031;
0;07:01:35:703;0.21667525;-0.35793316;10.242394;10.250937070113624;
0;07:01:35:714;0.22744916;-0.34955344;10.237606;10.246096728459346;
0;07:01:35:725;0.24660277;-0.36990416;10.220847;10.230510884912277;
0;07:01:35:735;0.24181437;-0.33997664;10.2495775;10.25806500486534;
0;07:01:35:745;0.22266077;-0.34476504;10.253169;10.261380088744573;
0;07:01:35:756;0.23343466;-0.36272156;10.263943;10.27300230779764;
0;07:01:35:767;0.21787235;-0.33518824;10.251971;10.259762836414527;
0;07:01:35:777;0.23463176;-0.33877954;10.291476;10.299723530734711;
0;07:01:35:788;0.22146365;-0.34715924;10.268731;10.276984074735315;
0;07:01:35:798;0.22864626;-0.33518824;10.261548;10.26956653842834;
0;07:01:35:809;0.24181437;-0.35314476;10.259154;10.268078004345327;
0;07:01:35:819;0.22266077;-0.36870706;10.238804;10.247859824443605;
0;07:01:35:830;0.23463176;-0.34596214;10.237606;10.246136937575775;
0;07:01:35:841;0.22984336;-0.34955344;10.234015;10.242562549745509;
0;07:01:35:851;0.23463176;-0.35553896;10.234015;10.242876880761264;
0;07:01:35:862;0.21188685;-0.35194764;10.269928;10.278141003854596;
0;07:01:35:873;0.22625206;-0.34356794;10.255563;10.26380994941617;
0;07:01:35:884;0.22146365;-0.33039984;10.286688;10.2943751262873;
0;07:01:35:895;0.21787235;-0.36391866;10.260351;10.269114465914893;
0;07:01:35:905;0.24061728;-0.32202014;10.272323;10.2801850761645;
0;07:01:35:916;0.24181437;-0.34596214;10.25676;10.265441056785239;
0;07:01:35:926;0.24420857;-0.32561144;10.255563;10.263636008797942;
0;07:01:35:937;0.22864626;-0.34476504;10.295067;10.3033754613931;
0;07:01:35:948;0.23702596;-0.34596214;10.2735195;10.282075518363596;
0;07:01:35:958;0.22744916;-0.36152446;10.250774;10.259669139502051;
0;07:01:35:969;0.23463176;-0.35194764;10.286688;10.295380780596727;
0;07:01:35:979;0.21906945;-0.35075054;10.262746;10.27107454110834;
0;07:01:35:990;0.21188685;-0.35553896;10.251971;10.260322397383144;
0;07:01:36:001;0.23223756;-0.32920274;10.237606;10.245530060981167;
0;07:01:36:011;0.22984336;-0.34955344;10.250774;10.259307729109523;
0;07:01:36:022;0.23942018;-0.33997664;10.232818;10.24126266622115;
0;07:01:36:032;0.22266077;-0.34835634;10.244789;10.253127946652654;
0;07:01:36:043;0.21667525;-0.35075054;10.251971;10.260257705515674;
0;07:01:36:054;0.21308395;-0.35075054;10.2495775;10.257790930813195;
0;07:01:36:064;0.21787235;-0.35075054;10.283096;10.291383149930425;
0;07:01:36:075;0.24061728;-0.35673606;10.2974615;10.306447975565922;
0;07:01:36:085;0.21667525;-0.33279404;10.281899;10.289565228321877;
0;07:01:36:096;0.22984336;-0.34117374;10.26514;10.273379203137829;
0;07:01:36:107;0.21547815;-0.34835634;10.236409;10.244601432974726;
0;07:01:36:117;0.22984336;-0.34476504;10.257957;10.266322839437434;
0;07:01:36:128;0.23582886;-0.35673606;10.266336;10.275239341157285;
0;07:01:36:139;0.22744916;-0.33399114;10.245986;10.253951264782145;
0;07:01:36:149;0.21906945;-0.32321724;10.26514;10.272563012329744;
0;07:01:36:160;0.23104046;-0.35913026;10.26514;10.274018222655299;
0;07:01:36:170;0.23343466;-0.36152446;10.272323;10.28133274033481;
0;07:01:36:181;0.23822308;-0.36032736;10.269928;10.27900796578844;
0;07:01:36:191;0.23463176;-0.33638534;10.28549;10.293663623959288;
0;07:01:36:202;0.23104046;-0.35194764;10.231621;10.240278891103411;
0;07:01:36:212;0.23223756;-0.34835634;10.260351;10.268889350897524;
0;07:01:36:223;0.24061728;-0.35793316;10.237606;10.246686818639347;
0;07:01:36:234;0.24061728;-0.33758244;10.269928;10.278291688276651;
0;07:01:36:245;0.23822308;-0.34237084;10.286688;10.295140306981235;
0;07:01:36:255;0.23463176;-0.35913026;10.28549;10.29443219257286;
0;07:01:36:266;0.22744916;-0.32800564;10.231621;10.239403434303664;
0;07:01:36:277;0.23463176;-0.34237084;10.26514;10.273527358209682;
0;07:01:36:288;0.23582886;-0.33877954;10.245986;10.254297611579057;
0;07:01:36:299;0.20949265;-0.320823;10.238804;10.245970887797494;
0;07:01:36:310;0.23822308;-0.36631286;10.279505;10.288787768612908;
0;07:01:36:320;0.24181437;-0.33518824;10.2495775;10.257907329507404;
0;07:01:36:331;0.22026655;-0.35075054;10.229227;10.237608700129766;
0;07:01:36:341;0.20709845;-0.34356794;10.231621;10.239482042206811;
0;07:01:36:351;0.23702596;-0.33758244;10.272323;10.280601040380121;
0;07:01:36:361;0.22266077;-0.32680854;10.259154;10.266772805528134;
0;07:01:36:372;0.20590134;-0.34237084;10.257957;10.265734621156525;
0;07:01:36:382;0.23223756;-0.34596214;10.263943;10.272397018365757;
0;07:01:36:393;0.23463176;-0.34835634;10.251971;10.26057112266094;
0;07:01:36:404;0.23582886;-0.35673606;10.242394;10.251318125754839;
0;07:01:36:414;0.24181437;-0.33997664;10.29387;10.302320970675128;
0;07:01:36:425;0.22266077;-0.33877954;10.266336;10.274337903151936;
0;07:01:36:435;0.21787235;-0.35194764;10.284293;10.29261962761804;
0;07:01:36:444;0.22146365;-0.33518824;10.267534;10.275390810622978;
0;07:01:36:454;0.22505496;-0.35075054;10.280702;10.289144806760772;
0;07:01:36:465;0.24779987;-0.32920274;10.238804;10.247091485447605;
0;07:01:36:475;0.23223756;-0.31364042;10.245986;10.253415910895104;
0;07:01:36:486;0.22744916;-0.34237084;10.261548;10.269777152105407;
0;07:01:36:497;0.22385786;-0.35314476;10.240001;10.248533190469374;
0;07:01:36:508;0.24779987;-0.34715924;10.245986;10.254860074684938;
0;07:01:36:518;0.22864626;-0.34237084;10.255563;10.26382295767727;
0;07:01:36:528;0.20829555;-0.35553896;10.253169;10.261445888787584;
0;07:01:36:539;0.21667525;-0.36152446;10.234015;10.242691039300292;
0;07:01:36:549;0.24660277;-0.36990416;10.230424;10.240078846508695;
0;07:01:36:560;0.22864626;-0.34955344;10.225636;10.234162912282407;
0;07:01:36:571;0.23104046;-0.33638534;10.279505;10.287602001625435;
0;07:01:36:581;0.21068975;-0.34835634;10.262746;10.270817527733042;
0;07:01:36:591;0.23463176;-0.34476504;10.277111;10.285568675266955;
0;07:01:36:601;0.22744916;-0.33877954;10.277111;10.28520854584597;
0;07:01:36:611;0.21787235;-0.34476504;10.298658;10.306730378790077;
0;07:01:36:621;0.22505496;-0.33518824;10.271125;10.279056581779564;
0;07:01:36:632;0.24899697;-0.31603462;10.279505;10.287375807910568;
0;07:01:36:642;0.22864626;-0.33039984;10.280702;10.28855047783985;
0;07:01:36:655;0.23223756;-0.31603462;10.275913;10.283394355118869;
0;07:01:36:666;0.22864626;-0.33997664;10.271125;10.279292978397988;
0;07:01:36:676;0.20829555;-0.32920274;10.286688;10.294061997207116;
0;07:01:36:686;0.24301147;-0.3196259;10.25676;10.264615687159365;
0;07:01:36:696;0.22385786;-0.32920274;10.237606;10.24534352297709;
0;07:01:36:706;0.22026655;-0.32920274;10.278308;10.285937321984656;
0;07:01:36:716;0.22864626;-0.34596214;10.243592;10.251982706484755;
0;07:01:36:726;0.22625206;-0.35793316;10.266336;10.275065594020594;
0;07:01:36:737;0.21787235;-0.35314476;10.229227;10.237639627214799;
0;07:01:36:748;0.22864626;-0.34955344;10.277111;10.285595749368802;
0;07:01:36:758;0.22625206;-0.34955344;10.245986;10.254443438309668;
0;07:01:36:769;0.23223756;-0.33518824;10.2495775;10.257686059293082;
0;07:01:36:779;0.22984336;-0.34117374;10.262746;10.270987261275765;
0;07:01:36:789;0.23582886;-0.33997664;10.253169;10.261514290644893;
0;07:01:36:800;0.22625206;-0.37229836;10.272323;10.281556840857194;
0;07:01:36:810;0.22744916;-0.33758244;10.283096;10.291149996453832;
0;07:01:36:820;0.23942018;-0.35913026;10.244789;10.253877232101798;
0;07:01:36:831;0.22864626;-0.33159694;10.240001;10.247919383200196;
0;07:01:36:841;0.23343466;-0.34237084;10.220847;10.229243405760608;
0;07:01:36:852;0.23223756;-0.32680854;10.257957;10.265789245499239;
0;07:01:36:863;0.21906945;-0.34237084;10.280702;10.288733266372615;
0;07:01:36:873;0.24061728;-0.34237084;10.26514;10.273665857134102;
0;07:01:36:884;0.21787235;-0.36272156;10.260351;10.269072117922141;
0;07:01:36:894;0.23942018;-0.34835634;10.243592;10.252309771551749;
0;07:01:36:904;0.23223756;-0.33399114;10.260351;10.26841198671946;
0;07:01:36:914;0.23463176;-0.320823;10.261548;10.269242994718272;
0;07:01:36:925;0.24061728;-0.33877954;10.251971;10.26038894778669;
0;07:01:36:935;0.22625206;-0.32202014;10.228029;10.235597866469844;
0;07:01:36:946;0.22146365;-0.35434186;10.228029;10.236561222839695;
0;07:01:36:957;0.20949265;-0.35314476;10.2495775;10.257799112234219;
0;07:01:36:968;0.22984336;-0.35434186;10.296265;10.30492367882301;
0;07:01:36:978;0.22744916;-0.36870706;10.267534;10.276669302152365;
0;07:01:36:989;0.23223756;-0.34596214;10.29387;10.302299864948807;
0;07:01:36:999;0.22625206;-0.32920274;10.238804;10.24659300215713;
0;07:01:37:009;0.22984336;-0.34356794;10.251971;10.260301205264586;
0;07:01:37:019;0.22505496;-0.36032736;10.261548;10.270338767462226;
0;07:01:37:030;0.23582886;-0.36272156;10.255563;10.264684439526937;
0;07:01:37:041;0.21787235;-0.33758244;10.266336;10.274195700396167;
0;07:01:37:052;0.23582886;-0.35913026;10.287885;10.296852030750179;
0;07:01:37:063;0.23104046;-0.34356794;10.241198;10.24956306828834;
0;07:01:37:072;0.22744916;-0.33877954;10.248381;10.256500787824498;
0;07:01:37:082;0.22744916;-0.34715924;10.235212;10.243623564465299;
0;07:01:37:093;0.22984336;-0.36032736;10.248381;10.257288504681036;
0;07:01:37:104;0.22385786;-0.35075054;10.241198;10.24964718095137;
0;07:01:37:115;0.22984336;-0.34715924;10.269928;10.278364060551196;
0;07:01:37:125;0.22864626;-0.35314476;10.261548;10.270168280332491;
0;07:01:37:136;0.22505496;-0.36272156;10.254366;10.263247233425396;
0;07:01:37:146;0.21906945;-0.33997664;10.281899;10.289850689960456;
0;07:01:37:157;0.22385786;-0.36870706;10.274716;10.283766418273292;
0;07:01:37:167;0.22864626;-0.34835634;10.272323;10.280770612398937;
0;07:01:37:177;0.21547815;-0.33997664;10.257957;10.265851672963576;
0;07:01:37:187;0.23343466;-0.34835634;10.245986;10.25456359500129;
0;07:01:37:197;0.23702596;-0.36272156;10.231621;10.240791836759874;
0;07:01:37:207;0.25378537;-0.35194764;10.230424;10.239621374163718;
0;07:01:37:217;0.22864626;-0.34955344;10.236409;10.244927616636302;
0;07:01:37:227;0.22984336;-0.34835634;10.253169;10.261659643077776;
0;07:01:37:238;0.25139117;-0.36990416;10.242394;10.252154612291795;
0;07:01:37:248;0.21667525;-0.35673606;10.247183;10.255679534166399;
0;07:01:37:259;0.23702596;-0.33159694;10.257957;10.266052330099235;
0;07:01:37:269;0.23104046;-0.35793316;10.259154;10.267995900229456;
0;07:01:37:279;0.22385786;-0.37708676;10.250774;10.260150256627542;
0;07:01:37:289;0.21547815;-0.36032736;10.237606;10.24621139848583;
0;07:01:37:299;0.22266077;-0.34476504;10.260351;10.268556127035682;
0;07:01:37:310;0.22864626;-0.35075054;10.2495775;10.25812599185378;
0;07:01:37:320;0.22505496;-0.34715924;10.26514;10.273473517641236;
0;07:01:37:330;0.22505496;-0.37229836;10.243592;10.252825835937637;
0;07:01:37:340;0.22625206;-0.35793316;10.2495775;10.258320850289314;
0;07:01:37:350;0.21428105;-0.34356794;10.287885;10.295849854720931;
0;07:01:37:360;0.22266077;-0.34356794;10.2495775;10.257751139263352;
0;07:01:37:370;0.22984336;-0.35793316;10.201694;10.21055829979228;
0;07:01:37:381;0.23702596;-0.33758244;10.269928;10.278208181172793;
0;07:01:37:391;0.21667525;-0.34955344;10.240001;10.24825588367243;
0;07:01:37:402;0.22744916;-0.33399114;10.26514;10.273089941839553;
0;07:01:37:413;0.24061728;-0.34715924;10.236409;10.245120119700395;
0;07:01:37:424;0.22625206;-0.35673606;10.230424;10.239141900348327;
0;07:01:37:435;0.20709845;-0.34237084;10.2495775;10.257385198521105;
0;07:01:37:445;0.21547815;-0.35194764;10.26514;10.273431187616882;
0;07:01:37:456;0.22505496;-0.34476504;10.253169;10.261432134011216;
0;07:01:37:467;0.20709845;-0.36032736;10.253169;10.261588639972643;
0;07:01:37:478;0.21308395;-0.35194764;10.260351;10.26859661969862;
0;07:01:37:489;0.25498247;-0.36391866;10.241198;10.2508332448809;
0;07:01:37:500;0.22385786;-0.33997664;10.279505;10.287561212962439;
0;07:01:37:511;0.22864626;-0.35434186;10.244789;10.253464648228933;
0;07:01:37:522;0.23822308;-0.36870706;10.260351;10.269737035547545;
0;07:01:37:533;0.22385786;-0.35194764;10.268731;10.27719899057116;
0;07:01:37:543;0.22625206;-0.33279404;10.240001;10.24790486578518;
0;07:01:37:553;0.23343466;-0.34835634;10.253169;10.261740682670698;
0;07:01:37:564;0.21906945;-0.34476504;10.255563;10.263694361000583;
0;07:01:37:575;0.22146365;-0.33159694;10.232818;10.240583979524763;
0;07:01:37:586;0.22026655;-0.34596214;10.251971;10.26017144905788;
0;07:01:37:597;0.21308395;-0.33638534;10.226832;10.234581865156478;
0;07:01:37:607;0.23343466;-0.34835634;10.2495775;10.258152022775022;
0;07:01:37:618;0.22385786;-0.32561144;10.238804;10.246425842883504;
0;07:01:37:630;0.24660277;-0.33638534;10.232818;10.241314441241173;
0;07:01:37:641;0.22505496;-0.34835634;10.251971;10.260356602113742;
0;07:01:37:652;0.22864626;-0.32202014;10.262746;10.270342110318833;
0;07:01:37:663;0.22266077;-0.33399114;10.213664;10.221548647964031;
0;07:01:37:673;0.23942018;-0.34596214;10.243592;10.252228657411404;
0;07:01:37:684;0.22864626;-0.33399114;10.274716;10.282685431828662;
0;07:01:37:694;0.22984336;-0.33518824;10.29387;10.301889960952705;
0;07:01:37:705;0.23463176;-0.35553896;10.241198;10.250052847377102;
0;07:01:37:717;0.22984336;-0.33997664;10.279505;10.287693219322898;
0;07:01:37:728;0.22984336;-0.34237084;10.30225;10.310499332446271;
0;07:01:37:739;0.23702596;-0.34955344;10.275913;10.284588396425338;
0;07:01:37:749;0.22984336;-0.33159694;10.21965;10.22761137430574;
0;07:01:37:759;0.25977087;-0.33399114;10.230424;10.239170214888173;
0;07:01:37:770;0.23463176;-0.33039984;10.2495775;10.257585277495755;
0;07:01:37:780;0.23582886;-0.3196259;10.244789;10.252486508855196;
0;07:01:37:791;0.23582886;-0.32441434;10.262746;10.270579821776776;
0;07:01:37:800;0.21188685;-0.34715924;10.278308;10.286351570186987;
0;07:01:37:811;0.20949265;-0.33279404;10.272323;10.279847023267289;
0;07:01:37:821;0.23223756;-0.34476504;10.244789;10.253219098999583;
0;07:01:37:832;0.22266077;-0.3184288;10.26514;10.272490970536118;
0;07:01:37:843;0.23942018;-0.34117374;10.248381;10.25685262728636;
0;07:01:37:853;0.22984336;-0.33518824;10.266336;10.2743780017456;
0;07:01:37:864;0.22625206;-0.34835634;10.234015;10.242441507386145;
0;07:01:37:874;0.23223756;-0.32800564;10.259154;10.267023232283352;
0;07:01:37:884;0.23223756;-0.33279404;10.271125;10.279138597548783;
0;07:01:37:895;0.22385786;-0.36391866;10.280702;10.289575979618014;
0;07:01:37:906;0.24061728;-0.34596214;10.243592;10.252256935808429;
0;07:01:37:917;0.22505496;-0.35553896;10.271125;10.279740150225216;
0;07:01:37:928;0.22744916;-0.35075054;10.216059;10.224608442275507;
0;07:01:37:938;0.21068975;-0.34715924;10.255563;10.26359958496188;
0;07:01:37:949;0.21906945;-0.33758244;10.261548;10.26943652782961;
0;07:01:37:959;0.21906945;-0.3184288;10.268731;10.276002605742306;
0;07:01:37:969;0.22385786;-0.33997664;10.272323;10.280384711403222;
0;07:01:37:980;0.22864626;-0.33638534;10.263943;10.271998547634128;
0;07:01:37:989;0.23463176;-0.36870706;10.272323;10.281615091352075;
0;07:01:38:000;0.22744916;-0.34476504;10.240001;10.248326979150404;
0;07:01:38:010;0.23702596;-0.35194764;10.281899;10.290651052507448;
0;07:01:38:020;0.23343466;-0.34596214;10.269928;10.278404514574934;
0;07:01:38:031;0.23104046;-0.32202014;10.261548;10.269198789906694;
0;07:01:38:041;0.23582886;-0.33758244;10.232818;10.241100262301876;
0;07:01:38:052;0.23223756;-0.34835634;10.283096;10.291615927464331;
0;07:01:38:062;0.23463176;-0.34596214;10.25676;10.265274576044327;
0;07:01:38:072;0.24899697;-0.33518824;10.250774;10.259275008198564;
0;07:01:38:082;0.23942018;-0.35075054;10.232818;10.241626203274441;
0;07:01:38:092;0.22744916;-0.33518824;10.2735195;10.281502300285753;
0;07:01:38:103;0.24061728;-0.33518824;10.254366;10.262664042751986;
0;07:01:38:113;0.24181437;-0.36511576;10.244789;10.254144714489044;
0;07:01:38:123;0.24540567;-0.33758244;10.257957;10.266444343372559;
0;07:01:38:133;0.23104046;-0.33518824;10.251971;10.260050986239511;
0;07:01:38:143;0.23223756;-0.34476504;10.267534;10.275945437110147;
0;07:01:38:153;0.22505496;-0.33877954;10.232818;10.240897253781037;
0;07:01:38:164;0.22984336;-0.33638534;10.260351;10.26843650557586;
0;07:01:38:175;0.24899697;-0.32680854;10.248381;10.25661273805336;
0;07:01:38:185;0.23942018;-0.33279404;10.255563;10.263753827872147;
0;07:01:38:196;0.22505496;-0.35553896;10.243592;10.252230889919268;
0;07:01:38:206;0.22864626;-0.34237084;10.248381;10.256646583230836;
0;07:01:38:217;0.21068975;-0.33159694;10.26514;10.272655106258016;
0;07:01:38:227;0.23223756;-0.34596214;10.263943;10.272397018365757;
0;07:01:38:237;0.24540567;-0.34356794;10.274716;10.283387306933184;
0;07:01:38:248;0.23104046;-0.36152446;10.25676;10.265729418823014;
0;07:01:38:259;0.22026655;-0.32680854;10.231621;10.239208215858065;
0;07:01:38:269;0.23822308;-0.32321724;10.237606;10.245476817945116;
0;07:01:38:280;0.24181437;-0.34117374;10.2735195;10.282026916646759;
0;07:01:38:290;0.23702596;-0.35314476;10.241198;10.250025307228666;
0;07:01:38:300;0.22505496;-0.33638534;10.230424;10.238426559680386;
0;07:01:38:311;0.24660277;-0.35673606;10.236409;10.245591494909721;
0;07:01:38:322;0.23223756;-0.33758244;10.259154;10.267333470608602;
0;07:01:38:333;0.24301147;-0.35434186;10.237606;10.24661869008885;
0;07:01:38:343;0.23223756;-0.33758244;10.245986;10.254175963714696;
0;07:01:38:354;0.25139117;-0.33399114;10.277111;10.285609471831567;
0;07:01:38:365;0.22505496;-0.33758244;10.223241;10.231288671682604;
0;07:01:38:376;0.24779987;-0.33638534;10.243592;10.252109217531927;
0;07:01:38:387;0.24181437;-0.32920274;10.251971;10.26010526904261;
0;07:01:38:398;0.20829555;-0.36511576;10.245986;10.254605258912372;
0;07:01:38:409;0.22864626;-0.33159694;10.25676;10.264665486217528;
0;07:01:38:420;0.19512744;-0.33638534;10.237606;10.244989426525017;
0;07:01:38:431;0.22984336;-0.3172317;10.254366;10.261846256226303;
0;07:01:38:441;0.22505496;-0.35673606;10.25676;10.265428793787063;
0;07:01:38:452;0.21547815;-0.33758244;10.269928;10.27773384795094;
0;07:01:38:462;0.22625206;-0.32561144;10.279505;10.28714886757893;
0;07:01:38:473;0.22505496;-0.33877954;10.2735195;10.281567229504665;
0;07:01:38:483;0.22266077;-0.33159694;10.212467;10.220274831880019;
0;07:01:38:493;0.25139117;-0.35553896;10.226832;10.236098375891935;
0;07:01:38:503;0.21308395;-0.36032736;10.283096;10.291613703500065;
0;07:01:38:513;0.23343466;-0.35075054;10.259154;10.267802339964387;
0;07:01:38:524;0.23702596;-0.34955344;10.251971;10.260666670230455;
0;07:01:38:535;0.23822308;-0.35553896;10.274716;10.283625458741854;
0;07:01:38:546;0.22266077;-0.34596214;10.284293;10.292519187881563;
0;07:01:38:556;0.23582886;-0.3196259;10.224439;10.232151401452487;
0;07:01:38:566;0.23223756;-0.33159694;10.225636;10.233645906758836;
0;07:01:38:577;0.21787235;-0.34356794;10.257957;10.266021488609395;
0;07:01:38:587;0.21906945;-0.34955344;10.220847;10.229168821335907;
0;07:01:38:597;0.22744916;-0.35314476;10.243592;10.252201123107776;
0;07:01:38:608;0.22984336;-0.34955344;10.274716;10.283229648885547;
0;07:01:38:618;0.23343466;-0.36750996;10.261548;10.27078001512741;
0;07:01:38:628;0.24779987;-0.33758244;10.259154;10.267697570698132;
0;07:01:38:637;0.25019407;-0.34117374;10.251971;10.260697156038164;
0;07:01:38:647;0.22266077;-0.34955344;10.240001;10.248384301846796;
0;07:01:38:657;0.22864626;-0.35673606;10.238804;10.247567981532633;
0;07:01:38:667;0.23463176;-0.34596214;10.225636;10.234176330967717;
0;07:01:38:678;0.22146365;-0.33877954;10.269928;10.277900498032706;
0;07:01:38:688;0.23104046;-0.34835634;10.240001;10.248528723842167;
0;07:01:38:699;0.22984336;-0.35075054;10.240001;10.248583812108315;
0;07:01:38:710;0.21547815;-0.36631286;10.235212;10.24403207610507;
0;07:01:38:720;0.22505496;-0.35194764;10.240001;10.248518301704452;
0;07:01:38:730;0.22625206;-0.33518824;10.241198;10.249178969832855;
0;07:01:38:741;0.22385786;-0.34596214;10.271125;10.27938723864186;
0;07:01:38:751;0.23223756;-0.33279404;10.272323;10.280335730625485;
0;07:01:38:762;0.23104046;-0.3184288;10.283096;10.290619543348082;
0;07:01:38:773;0.22146365;-0.32561144;10.251971;10.259531195268119;
0;07:01:38:783;0.22505496;-0.34356794;10.2495775;10.257803202942284;
0;07:01:38:794;0.23223756;-0.33758244;10.268731;10.276902784154423;
0;07:01:38:804;0.23463176;-0.35434186;10.274716;10.283501561137149;
0;07:01:38:815;0.24660277;-0.34476504;10.253169;10.261927294345522;
0;07:01:38:825;0.24301147;-0.32321724;10.274716;10.282670592514386;
0;07:01:38:836;0.24061728;-0.33877954;10.248381;10.256801302619925;
0;07:01:38:846;0.24301147;-0.35553896;10.236409;10.245464158721006;
0;07:01:38:856;0.22625206;-0.33279404;10.267534;10.275417169051915;
0;07:01:38:867;0.22744916;-0.32561144;10.272323;10.279998424841615;
0;07:01:38:877;0.22505496;-0.33877954;10.250774;10.258839958896235;
0;07:01:38:888;0.21787235;-0.34835634;10.277111;10.285321296268798;
0;07:01:38:898;0.22984336;-0.34117374;10.261548;10.269790524256537;
0;07:01:38:909;0.23104046;-0.35194764;10.248381;10.25702445147444;
0;07:01:38:920;0.22984336;-0.33877954;10.236409;10.244592496289886;
0;07:01:38:931;0.23942018;-0.34835634;10.295067;10.303740879449553;
0;07:01:38:941;0.23822308;-0.35075054;10.244789;10.253559517947215;
0;07:01:38:952;0.23223756;-0.35553896;10.268731;10.277508550560098;
0;07:01:38:963;0.22505496;-0.34835634;10.230424;10.238827082097336;
0;07:01:38:973;0.21068975;-0.34715924;10.271125;10.279149359750475;
0;07:01:38:984;0.24181437;-0.36032736;10.260351;10.269523449383687;
0;07:01:38:994;0.23463176;-0.34117374;10.250774;10.259134083991704;
0;07:01:39:004;0.23822308;-0.35075054;10.235212;10.243991113959007;
0;07:01:39:014;0.24061728;-0.33039984;10.259154;10.267292972963993;
0;07:01:39:024;0.20949265;-0.34715924;10.272323;10.280322001123182;
0;07:01:39:035;0.21787235;-0.34835634;10.218452;10.226709841256184;
0;07:01:39:045;0.22505496;-0.33279404;10.259154;10.267017287505345;
0;07:01:39:056;0.22864626;-0.35434186;10.268731;10.277386435083345;
0;07:01:39:067;0.22625206;-0.35314476;10.263943;10.272508052656592;
0;07:01:39:078;0.22625206;-0.35913026;10.267534;10.276304035088785;
0;07:01:39:088;0.24181437;-0.33758244;10.2495775;10.257986167489326;
0;07:01:39:099;0.25019407;-0.35314476;10.286688;10.295788350168474;
0;07:01:39:109;0.23343466;-0.34955344;10.2735195;10.282114844775483;
0;07:01:39:120;0.21188685;-0.34237084;10.225636;10.233559425995953;
0;07:01:39:130;0.22984336;-0.34835634;10.236409;10.244913467332216;
0;07:01:39:141;0.22385786;-0.35194764;10.247183;10.255668375375814;
0;07:01:39:152;0.24779987;-0.34715924;10.25676;10.265624256801724;
0;07:01:39:163;0.21547815;-0.35194764;10.266336;10.274627129316391;
0;07:01:39:173;0.21906945;-0.36511576;10.254366;10.263202259415712;
0;07:01:39:184;0.22864626;-0.34476504;10.287885;10.296198867572706;
0;07:01:39:195;0.24061728;-0.34596214;10.224439;10.233119555631301;
0;07:01:39:205;0.23582886;-0.33399114;10.247183;10.255336209816194;
0;07:01:39:216;0.21906945;-0.33518824;10.2495775;10.257396355443996;
0;07:01:39:227;0.23463176;-0.34596214;10.271125;10.27962770967944;
0;07:01:39:237;0.23223756;-0.35553896;10.235212;10.244018670329844;
0;07:01:39:247;0.23582886;-0.34955344;10.259154;10.26781608620722;
0;07:01:39:257;0.22625206;-0.34955344;10.266336;10.274777122734829;
0;07:01:39:267;0.22744916;-0.34596214;10.231621;10.239994655250108;
0;07:01:39:277;0.24779987;-0.33877954;10.216059;10.224677836745487;
0;07:01:39:288;0.23942018;-0.34955344;10.2495775;10.258330890604611;
0;07:01:39:298;0.21188685;-0.34356794;10.279505;10.287426980038736;
0;07:01:39:308;0.22146365;-0.35194764;10.30225;10.31063844467057;
0;07:01:39:319;0.23582886;-0.37349546;10.274716;10.28420671889252;
0;07:01:39:329;0.24061728;-0.34955344;10.268731;10.27749593079082;
0;07:01:39:340;0.24061728;-0.34117374;10.267534;10.276018197132242;
0;07:01:39:350;0.23582886;-0.34356794;10.244789;10.253260768373998;
0;07:01:39:360;0.23104046;-0.36152446;10.234015;10.243004993953305;
0;07:01:39:371;0.22984336;-0.37229836;10.244789;10.25412797379327;
0;07:01:39:382;0.22625206;-0.34596214;10.271125;10.27943993493695;
0;07:01:39:393;0.22266077;-0.34356794;10.2735195;10.28167408355513;
0;07:01:39:403;0.24301147;-0.34237084;10.242394;10.250995866732442;
0;07:01:39:413;0.24181437;-0.33758244;10.25676;10.265162348664223;
0;07:01:39:424;0.25258827;-0.34835634;10.247183;10.256212910196304;
0;07:01:39:433;0.24660277;-0.32800564;10.245986;10.254200888624029;
0;07:01:39:444;0.24181437;-0.35434186;10.229227;10.238218281831355;
0;07:01:39:455;0.23463176;-0.34476504;10.247183;10.25566502773627;
0;07:01:39:466;0.23582886;-0.34117374;10.248381;10.256769317552974;
0;07:01:39:476;0.24899697;-0.33997664;10.277111;10.285747066324465;
0;07:01:39:485;0.23343466;-0.35913026;10.260351;10.269287570806169;
0;07:01:39:496;0.22864626;-0.34715924;10.275913;10.28431762568032;
0;07:01:39:507;0.23582886;-0.35553896;10.217256;10.226159259023788;
0;07:01:39:517;0.22744916;-0.35913026;10.207679;10.216526734564267;
0;07:01:39:528;0.24061728;-0.36272156;10.278308;10.287520424137723;
0;07:01:39:538;0.22744916;-0.34835634;10.225636;10.23409544584799;
0;07:01:39:549;0.22625206;-0.33159694;10.260351;10.268200973535246;
0;07:01:39:560;0.22505496;-0.33877954;10.254366;10.26242874994298;
0;07:01:39:571;0.22146365;-0.35793316;10.272323;10.280942407894015;
0;07:01:39:581;0.23582886;-0.32680854;10.244789;10.252713100225098;
0;07:01:39:592;0.22505496;-0.33518824;10.261548;10.26948741788858;
0;07:01:39:604;0.22744916;-0.32561144;10.278308;10.285979229678569;
0;07:01:39:614;0.22266077;-0.32920274;10.2495775;10.2572799509513;
0;07:01:39:625;0.21068975;-0.33159694;10.254366;10.26188937750702;
0;07:01:39:636;0.23343466;-0.32561144;10.235212;10.243050801479004;
0;07:01:39:645;0.23463176;-0.35434186;10.280702;10.289481812711518;
0;07:01:39:655;0.24899697;-0.34356794;10.279505;10.288258306057832;
0;07:01:39:666;0.22026655;-0.34715924;10.269928;10.278154365124134;
0;07:01:39:676;0.22984336;-0.34356794;10.254366;10.262694150921169;
0;07:01:39:686;0.21667525;-0.35075054;10.234015;10.242316366704559;
0;07:01:39:696;0.22505496;-0.34715924;10.235212;10.243570683919026;
0;07:01:39:706;0.23582886;-0.33997664;10.260351;10.268690235152086;
0;07:01:39:716;0.21787235;-0.36631286;10.253169;10.262023944476631;
0;07:01:39:726;0.23463176;-0.34596214;10.236409;10.244941021222148;
0;07:01:39:737;0.21188685;-0.32800564;10.228029;10.23548046868366;
0;07:01:39:747;0.24181437;-0.34955344;10.245986;10.254798696282123;
0;07:01:39:758;0.22625206;-0.33877954;10.235212;10.243316704533498;
0;07:01:39:769;0.22505496;-0.35673606;10.271125;10.27978171209583;
0;07:01:39:780;0.23223756;-0.35553896;10.25676;10.26554733548913;
0;07:01:39:791;0.24420857;-0.34715924;10.234015;10.242813568417775;
0;07:01:39:802;0.22625206;-0.34356794;10.229227;10.237495424225358;
0;07:01:39:813;0.21308395;-0.33758244;10.259154;10.266918455066655;
0;07:01:39:823;0.23343466;-0.34476504;10.261548;10.269991475875274;
0;07:01:39:834;0.23582886;-0.33877954;10.253169;10.261474885282771;
0;07:01:39:844;0.25258827;-0.33159694;10.2495775;10.258050501808627;
0;07:01:39:854;0.22505496;-0.33159694;10.269928;10.277744240462654;
0;07:01:39:864;0.22385786;-0.33638534;10.254366;10.262323925817117;
0;07:01:39:874;0.22026655;-0.34835634;10.228029;10.236329801981832;
0;07:01:39:884;0.24181437;-0.34955344;10.245986;10.254798696282123;
0;07:01:39:894;0.22744916;-0.34715924;10.226832;10.235250886899326;
0;07:01:39:905;0.22864626;-0.32920274;10.260351;10.268176825623215;
0;07:01:39:915;0.24061728;-0.33039984;10.257957;10.26609729162325;
0;07:01:39:926;0.23343466;-0.34955344;10.245986;10.254604514915444;
0;07:01:39:937;0.24779987;-0.34356794;10.260351;10.269091806045756;
0;07:01:39:947;0.21787235;-0.33997664;10.279505;10.287432913022636;
0;07:01:39:957;0.20590134;-0.33159694;10.232818;10.24025914758352;
0;07:01:39:969;0.21308395;-0.33758244;10.262746;10.270507394649725;
0;07:01:39:979;0.23104046;-0.34596214;10.2495775;10.258017033137957;
0;07:01:39:989;0.22266077;-0.35314476;10.261548;10.270036791593474;
0;07:01:39:999;0.24301147;-0.34476504;10.259154;10.267821659003127;
0;07:01:40:009;0.21188685;-0.35194764;10.263943;10.27216046304833;
0;07:01:40:020;0.22385786;-0.35673606;10.248381;10.257030773954593;
0;07:01:40:030;0.23822308;-0.37110126;10.29387;10.303311410084799;
0;07:01:40:041;0.25977087;-0.34835634;10.253169;10.262373735996249;
0;07:01:40:051;0.21787235;-0.35075054;10.253169;10.261480089773235;
0;07:01:40:062;0.22266077;-0.35194764;10.218452;10.226935884727743;
0;07:01:40:072;0.23942018;-0.34117374;10.223241;10.231733840379698;
0;07:01:40:082;0.23463176;-0.33039984;10.255563;10.263565762712652;
0;07:01:40:092;0.22625206;-0.34356794;10.261548;10.269790524256537;
0;07:01:40:103;0.22864626;-0.32680854;10.225636;10.23341106505388;
0;07:01:40:114;0.22385786;-0.35913026;10.28549;10.294192067366152;
0;07:01:40:125;0.22505496;-0.35314476;10.263943;10.272481686763077;
0;07:01:40:135;0.22864626;-0.34117374;10.289082;10.297275101293485;
0;07:01:40:145;0.22984336;-0.33997664;10.248381;10.256593769828136;
0;07:01:40:155;0.22266077;-0.33997664;10.248381;10.256435327988328;
0;07:01:40:165;0.20949265;-0.33997664;10.2735195;10.281277827541178;
0;07:01:40:175;0.24420857;-0.33279404;10.235212;10.24353269913281;
0;07:01:40:186;0.22744916;-0.34476504;10.254366;10.262680769523548;
0;07:01:40:196;0.22026655;-0.33997664;10.224439;10.232460460236947;
0;07:01:40:207;0.22864626;-0.35075054;10.274716;10.283243745468203;
0;07:01:40:218;0.22385786;-0.34835634;10.275913;10.284252713825927;
0;07:01:40:228;0.22505496;-0.34476504;10.296265;10.304493148162473;
0;07:01:40:238;0.23582886;-0.33758244;10.262746;10.271004345897119;
0;07:01:40:249;0.22984336;-0.35075054;10.275913;10.284466365013108;
0;07:01:40:259;0.24181437;-0.34596214;10.251971;10.260656632200776;
0;07:01:40:270;0.22744916;-0.34117374;10.232818;10.24102948914603;
0;07:01:40:280;0.22864626;-0.36391866;10.2735195;10.282505503698685;
0;07:01:40:290;0.23582886;-0.34356794;10.248381;10.256849280033334;
0;07:01:40:301;0.25019407;-0.34835634;10.267534;10.276488155068808;
0;07:01:40:312;0.24181437;-0.35194764;10.289082;10.297938568340959;
0;07:01:40:323;0.23463176;-0.35553896;10.26514;10.273974409686762;
0;07:01:40:333;0.24540567;-0.34237084;10.287885;10.296504892461726;
0;07:01:40:343;0.24420857;-0.32920274;10.229227;10.237436177447197;
0;07:01:40:354;0.24181437;-0.35793316;10.260351;10.26943987097991;
0;07:01:40:364;0.23942018;-0.35194764;10.250774;10.259608533503712;
0;07:01:40:375;0.24540567;-0.34955344;10.224439;10.233355149567883;
0;07:01:40:385;0.24061728;-0.34835634;10.224439;10.2332008212412;
0;07:01:40:396;0.25019407;-0.36032736;10.279505;10.28886080857746;
0;07:01:40:407;0.22864626;-0.34476504;10.277111;10.28543404545564;
0;07:01:40:418;0.24181437;-0.3172317;10.248381;10.256140381612557;
0;07:01:40:429;0.23223756;-0.36272156;10.238804;10.247858707713613;
0;07:01:40:439;0.22026655;-0.35194764;10.242394;10.250806451101749;
0;07:01:40:450;0.21308395;-0.34356794;10.228029;10.236016015264244;
0;07:01:40:460;0.22864626;-0.36750996;10.303447;10.312534031667331;
0;07:01:40:471;0.24540567;-0.34596214;10.257957;10.266723388250965;
0;07:01:40:481;0.22625206;-0.35075054;10.255563;10.264053015342322;
0;07:01:40:492;0.21787235;-0.36032736;10.247183;10.255830548604985;
0;07:01:40:502;0.21428105;-0.34356794;10.29387;10.30183071422032;
0;07:01:40:513;0.24181437;-0.34476504;10.2495775;10.258224909003088;
0;07:01:40:523;0.22385786;-0.34596214;10.242394;10.250680296117089;
0;07:01:40:533;0.23343466;-0.34237084;10.226832;10.235224052328663;
0;07:01:40:544;0.24779987;-0.33997664;10.248381;10.25701180650244;
0;07:01:40:554;0.23702596;-0.35194764;10.26514;10.27390571948712;
0;07:01:40:565;0.23702596;-0.34715924;10.247183;10.255801164196352;
0;07:01:40:574;0.24899697;-0.34596214;10.261548;10.270397081582528;
0;07:01:40:585;0.22026655;-0.34117374;10.269928;10.277953944257263;
0;07:01:40:596;0.22385786;-0.35075054;10.247183;10.255627459706458;
0;07:01:40:606;0.22146365;-0.34596214;10.26514;10.273355438716935;
0;07:01:40:617;0.24420857;-0.34237084;10.272323;10.280927566063887;
0;07:01:40:627;0.23822308;-0.35194764;10.283096;10.291875016012138;
0;07:01:40:638;0.22984336;-0.35793316;10.234015;10.242851928296142;
0;07:01:40:648;0.23104046;-0.34596214;10.274716;10.283135052896723;
0;07:01:40:658;0.22505496;-0.34476504;10.210073;10.21837108971145;
0;07:01:40:669;0.22625206;-0.35553896;10.245986;10.254649154635567;
0;07:01:40:680;0.21906945;-0.34356794;10.238804;10.246908698647507;
0;07:01:40:691;0.22984336;-0.34715924;10.244789;10.253245886474005;
0;07:01:40:702;0.23942018;-0.34596214;10.237606;10.246247511832342;
0;07:01:40:713;0.22625206;-0.35314476;10.257957;10.266527946162517;
0;07:01:40:723;0.22984336;-0.34835634;10.224439;10.232952921834844;
0;07:01:40:734;0.25258827;-0.34476504;10.284293;10.293169990324023;
0;07:01:40:745;0.23343466;-0.34476504;10.220847;10.229323956328473;
0;07:01:40:755;0.24660277;-0.34835634;10.245986;10.25487197833265;
0;07:01:40:766;0.22984336;-0.35793316;10.261548;10.270361053152385;
0;07:01:40:777;0.22146365;-0.35075054;10.266336;10.274713635688839;
0;07:01:40:788;0.24660277;-0.3184288;10.251971;10.259879212737397;
0;07:01:40:799;0.23942018;-0.34476504;10.224439;10.233050963972085;
0;07:01:40:809;0.23582886;-0.33518824;10.236409;10.244610369651769;
0;07:01:40:819;0.22984336;-0.32441434;10.2735195;10.281209928208384;
0;07:01:40:830;0.24420857;-0.35553896;10.284293;10.293334166900653;
0;07:01:40:839;0.23104046;-0.34835634;10.284293;10.292784554210515;
0;07:01:40:850;0.24061728;-0.34835634;10.287885;10.29659269695525;
0;07:01:40:860;0.24540567;-0.34596214;10.291476;10.300213517133281;
0;07:01:40:871;0.22505496;-0.35314476;10.231621;10.24018687852565;
0;07:01:40:880;0.20949265;-0.35673606;10.226832;10.235196844983804;
0;07:01:40:890;0.21667525;-0.34835634;10.295067;10.303237361833286;
0;07:01:40:900;0.21906945;-0.32202014;10.301053;10.30841316391654;
0;07:01:40:910;0.23343466;-0.34955344;10.266336;10.274937880576555;
0;07:01:40:921;0.22146365;-0.33399114;10.231621;10.239466022635698;
0;07:01:40:931;0.23822308;-0.34476504;10.228029;10.236610413072455;
0;07:01:40:942;0.23104046;-0.33039984;10.247183;10.255110792345505;
0;07:01:40:952;0.23463176;-0.33638534;10.242394;10.250602518376473;
0;07:01:40:962;0.22385786;-0.33399114;10.243592;10.251479995690904;
0;07:01:40:973;0.23343466;-0.33279404;10.240001;10.24806604516265;
0;07:01:40:982;0.23463176;-0.35075054;10.245986;10.254672590410843;
0;07:01:40:993;0.23582886;-0.35075054;10.261548;10.270248881354382;
0;07:01:41:003;0.25378537;-0.33399114;10.290278;10.29882460618895;
0;07:01:41:014;0.22385786;-0.33039984;10.238804;10.24657922744258;
0;07:01:41:025;0.22984336;-0.32920274;10.245986;10.253849702225029;
0;07:01:41:036;0.24779987;-0.34596214;10.255563;10.264387871969301;
0;07:01:41:047;0.22505496;-0.35075054;10.2495775;10.258046411199182;
0;07:01:41:057;0.23104046;-0.33638534;10.257957;10.266071652431204;
0;07:01:41:068;0.24660277;-0.36631286;10.284293;10.293769240694298;
0;07:01:41:078;0.22625206;-0.35793316;10.247183;10.255928000091771;
0;07:01:41:088;0.23582886;-0.34117374;10.245986;10.254376849320055;
0;07:01:41:099;0.21787235;-0.33758244;10.251971;10.259841288329891;
0;07:01:41:110;0.24420857;-0.35913026;10.253169;10.262362956201862;
0;07:01:41:120;0.22864626;-0.34955344;10.280702;10.28918336465647;
0;07:01:41:131;0.25498247;-0.4189853;10.309433;10.321093498670612;
0;07:01:41:142;0.25617957;-0.49679685;10.184934;10.20025996456593;
0;07:01:41:152;0.4381389;-0.1364695;10.445902;10.455976932514783;
0;07:01:41:162;0.15203181;-0.110133275;11.055226;11.056820203397264;
0;07:01:41:173;-0.36750996;-0.08619126;10.679337;10.686005783476451;
0;07:01:41:183;0.021547815;-0.29448682;10.493786;10.49793949799737;
0;07:01:41:193;0.4189853;-0.60333884;10.107122;10.133779604604939;
0;07:01:41:203;0.035913024;-0.6572084;9.660604;9.682999285277853;
0;07:01:41:214;0.46208093;-0.7553706;9.865308;9.904968371352833;
