Round;Timestamp;AccX;AccY;
0;04:04:47:103;-1.5478514;8.573636;
0;04:04:47:113;1.3467385;4.8602295;
0;04:04:47:123;-0.40462008;3.7098155;
0;04:04:47:133;3.3423057;6.743269;
0;04:04:47:143;-2.778471;1.4939818;
0;04:04:47:153;-3.3686419;3.632004;
0;04:04:47:163;-5.317522;5.6527104;
0;04:04:47:173;7.547721;5.2863975;
0;04:04:47:184;-12.765883;0.4297592;
0;04:04:47:194;12.636597;7.6829934;
0;04:04:47:205;-4.0916905;2.6803088;
0;04:04:47:216;6.1770406;9.707291;
0;04:04:47:227;8.497022;1.1815386;
0;04:04:47:238;-9.817424;1.8818425;
0;04:04:47:249;0.78769237;2.6156654;
0;04:04:47:260;3.5422213;5.279215;
0;04:04:47:271;-0.22026655;3.3279405;
0;04:04:47:281;3.1783028;7.181408;
0;04:04:47:291;-7.526173;1.7357962;
0;04:04:47:302;-2.4061728;-2.5629928;
0;04:04:47:312;2.396596;3.4261026;
0;04:04:47:322;0.05267244;0.7697359;
0;04:04:47:333;-0.8535329;13.10586;
0;04:04:47:344;2.8502972;0.41180268;
0;04:04:47:354;4.7070007;9.821015;
0;04:04:47:364;-1.3227965;2.0278888;
0;04:04:47:374;-6.331466;1.1887212;
0;04:04:47:384;5.237316;2.2493525;
0;04:04:47:395;3.8965633;1.9201498;
0;04:04:47:406;-4.984728;-1.4449008;
0;04:04:47:417;2.6779146;6.281188;
0;04:04:47:428;-4.4520183;1.4664485;
0;04:04:47:438;-9.275137;1.6256629;
0;04:04:47:448;8.228871;6.731298;
0;04:04:47:458;-11.853693;-3.288436;
0;04:04:47:468;-2.4863784;2.456451;
0;04:04:47:478;8.562862;1.5406688;
0;04:04:47:488;5.5222263;-2.9747956;
0;04:04:47:498;-5.398925;3.526659;
0;04:04:47:509;0.090979666;-3.2848446;
0;04:04:47:525;2.0949266;10.29387;
0;04:04:47:536;-1.8734628;5.2289367;
0;04:04:47:547;5.9364233;1.3335704;
0;04:04:47:558;-6.2345014;-1.1623849;
0;04:04:47:569;-3.551798;1.7058687;
0;04:04:47:580;9.870096;4.07134;
0;04:04:47:589;9.728839;6.8186865;
0;04:04:47:599;3.964798;3.9205053;
0;04:04:47:609;4.9224787;3.1280246;
0;04:04:47:620;0.47764325;-2.0757728;
0;04:04:47:632;-2.2493525;5.919664;
0;04:04:47:642;6.5684924;8.403648;
0;04:04:47:652;2.517503;1.4149733;
0;04:04:47:662;0.35434186;3.4823663;
0;04:04:47:672;7.217321;3.5529952;
0;04:04:47:682;2.2014685;1.3263878;
0;04:04:47:693;4.6483426;2.2170308;
0;04:04:47:704;-1.2018893;-1.7226281;
0;04:04:47:715;-9.94312;-1.0606314;
0;04:04:47:725;14.568717;3.441665;
0;04:04:47:737;4.1838675;7.717709;
0;04:04:47:748;-0.1448492;-1.234211;
0;04:04:47:757;-0.44651863;2.7353754;
0;04:04:47:767;3.560178;0.91458505;
0;04:04:47:777;6.3470287;0.842759;
0;04:04:47:787;3.1316159;-1.5514427;
0;04:04:47:798;4.0054994;1.7238252;
0;04:04:47:809;-0.5363012;-2.4708161;
0;04:04:47:820;3.0969;-1.9045875;
0;04:04:47:829;0.9983821;-0.1340753;
0;04:04:47:839;-1.436521;1.5610195;
0;04:04:47:849;-4.1659107;-0.32441434;
0;04:04:47:859;-8.908825;2.348712;
0;04:04:47:870;6.9407907;5.057751;
0;04:04:47:880;-1.5059528;-4.047398;
0;04:04:47:890;-1.9620483;0.5805939;
0;04:04:47:902;-20.557814;2.1452048;
0;04:04:47:913;0.46567222;-9.032125;
0;04:04:47:924;-3.2788591;-10.324995;
0;04:04:47:934;1.0666169;-6.373365;
0;04:04:47:944;-14.165295;7.703344;
0;04:04:47:954;-6.173449;-10.212467;
0;04:04:47:965;-18.32522;-0.15562311;
0;04:04:47:976;-15.799337;-3.1411927;
0;04:04:47:987;-7.433996;-2.7234044;
0;04:04:47:997;-11.1653595;-10.107122;
0;04:04:48:008;14.083892;6.6774287;
0;04:04:48:019;-21.952435;-7.547721;
0;04:04:48:029;1.7860745;-1.4293385;
0;04:04:48:040;-12.850878;-3.1411927;
0;04:04:48:050;-8.730456;3.632004;
0;04:04:48:060;-10.474632;-3.9959226;
0;04:04:48:071;-18.09418;-2.2840683;
0;04:04:48:082;-6.3709707;-4.0414124;
0;04:04:48:092;-6.7719994;2.4863784;
0;04:04:48:103;-13.421895;-1.8267759;
0;04:04:48:113;-13.36204;2.0745757;
0;04:04:48:124;-2.8538885;0.7529764;
0;04:04:48:134;-0.7625532;-0.20470424;
0;04:04:48:145;-4.571728;0.15801731;
0;04:04:48:155;-2.9580362;-2.5115175;
0;04:04:48:166;-10.613496;-2.634819;
0;04:04:48:177;-10.222044;-5.281609;
0;04:04:48:188;-9.41879;-2.15957;
0;04:04:48:199;-11.5316725;-1.3060371;
0;04:04:48:210;1.2378023;-6.133945;
0;04:04:48:220;-7.4256167;0.25737667;
0;04:04:48:230;0.2777274;-2.9173348;
0;04:04:48:241;-5.9280434;2.5558102;
0;04:04:48:251;-9.218874;0.10295067;
0;04:04:48:262;-6.4583592;0.5554548;
0;04:04:48:273;-7.9032598;3.0897174;
0;04:04:48:284;-7.4926543;5.2361193;
0;04:04:48:295;-6.3601966;2.079364;
0;04:04:48:306;-4.158728;8.310274;
0;04:04:48:317;-12.496535;0.12689269;
0;04:04:48:327;-1.8818425;3.5051112;
0;04:04:48:338;0.94810385;6.791153;
0;04:04:48:348;-8.475474;3.3961751;
0;04:04:48:359;-2.8083985;5.657499;
0;04:04:48:369;-6.0836663;5.595249;
0;04:04:48:380;-10.192117;-2.0506337;
0;04:04:48:391;-3.3147724;6.611588;
0;04:04:48:402;-1.9871874;5.246893;
0;04:04:48:412;0.9660604;3.4009635;
0;04:04:48:422;3.2261868;6.716933;
0;04:04:48:433;0.23702596;3.0490158;
0;04:04:48:443;-4.486734;7.9224133;
0;04:04:48:454;0.9911995;2.859874;
0;04:04:48:464;2.2972364;3.693056;
0;04:04:48:475;-3.1830912;-1.2940661;
0;04:04:48:486;-9.625888;1.3682863;
0;04:04:48:497;0.51954174;6.50744;
0;04:04:48:507;10.696096;5.409699;
0;04:04:48:518;-6.921637;4.3299136;
0;04:04:48:528;-1.1336545;2.9281087;
0;04:04:48:539;0.6500258;-2.3714569;
0;04:04:48:549;7.839813;5.5030727;
0;04:04:48:559;-0.20709845;4.8482585;
0;04:04:48:570;-1.3491327;4.200627;
0;04:04:48:580;5.755661;-1.6316484;
0;04:04:48:591;-0.59495914;2.2385786;
0;04:04:48:601;3.369839;2.0219033;
0;04:04:48:612;1.6304513;7.0186024;
0;04:04:48:622;1.7525556;2.2720973;
0;04:04:48:633;0.7469909;3.855862;
0;04:04:48:644;3.6990416;3.6583402;
0;04:04:48:654;13.93186;4.8398786;
0;04:04:48:665;-2.753332;2.3415294;
0;04:04:48:676;-3.527856;2.0685902;
0;04:04:48:687;3.5326445;0.8439561;
0;04:04:48:697;8.584411;0.25737667;
0;04:04:48:708;2.8179753;0.9983821;
0;04:04:48:718;-0.35075054;-0.58418524;
0;04:04:48:729;3.1771057;11.517307;
0;04:04:48:739;-2.3235726;1.30484;
0;04:04:48:750;7.1826053;1.9500773;
0;04:04:48:760;0.9516952;4.3837833;
0;04:04:48:771;0.8738836;-0.45489833;
0;04:04:48:781;7.657854;2.3127987;
0;04:04:48:792;-7.2149267;-2.3139958;
0;04:04:48:803;-1.127669;1.1468226;
0;04:04:48:814;0.8762778;2.3020248;
0;04:04:48:824;3.6954503;9.537302;
0;04:04:48:835;-3.277662;1.5442601;
0;04:04:48:845;5.2863975;1.8447324;
0;04:04:48:855;-1.5502456;-1.0474633;
0;04:04:48:866;2.7030537;3.525462;
0;04:04:48:877;-8.662222;6.467936;
0;04:04:48:886;-0.664391;3.8187518;
0;04:04:48:897;-1.3383588;3.0023289;
0;04:04:48:907;2.0027497;2.5222914;
0;04:04:48:918;8.267179;4.559757;
0;04:04:48:928;1.2497733;-1.2785037;
0;04:04:48:939;1.2964603;2.6180596;
0;04:04:48:950;-5.3127337;4.8147397;
0;04:04:48:960;-7.2125325;0.78769237;
0;04:04:48:971;8.025364;4.993108;
0;04:04:48:982;-2.243367;7.848193;
0;04:04:48:992;-2.8874073;1.0414777;
0;04:04:49:003;-0.50038815;-0.19632454;
0;04:04:49:013;3.9911342;2.8095956;
0;04:04:49:024;-2.0709844;-3.834314;
0;04:04:49:034;-2.5450363;5.21098;
0;04:04:49:045;-0.110133275;7.563283;
0;04:04:49:055;4.155137;3.0454245;
0;04:04:49:066;-4.1096473;-5.7041855;
0;04:04:49:076;-5.876568;-0.5374983;
0;04:04:49:086;-2.373851;0.33758244;
0;04:04:49:096;8.471883;9.192537;
0;04:04:49:106;-5.2301335;0.91338795;
0;04:04:49:116;6.1219735;7.651869;
0;04:04:49:127;-0.5686229;2.2134395;
0;04:04:49:138;-5.2504845;2.6898856;
0;04:04:49:149;1.5035586;-2.6563668;
0;04:04:49:159;-0.320823;2.4049757;
0;04:04:49:170;6.363788;-4.673482;
0;04:04:49:181;-3.6236243;1.1192893;
0;04:04:49:192;-4.0043025;-2.4552538;
0;04:04:49:202;-3.681085;-3.9097314;
0;04:04:49:213;-2.883816;-7.97748;
0;04:04:49:223;7.8206596;-4.0773253;
0;04:04:49:234;-4.197036;-1.3862427;
0;04:04:49:244;3.2213984;-3.1172507;
0;04:04:49:255;-4.582502;-8.340201;
0;04:04:49:265;12.018892;6.50744;
0;04:04:49:276;-11.147403;-6.281188;
0;04:04:49:286;16.114174;7.4974427;
0;04:04:49:296;-8.359355;-3.4727895;
0;04:04:49:306;7.2699933;-10.125079;
0;04:04:49:316;-0.20709845;-6.752846;
0;04:04:49:326;14.438233;-8.817844;
0;04:04:49:336;32.774227;-17.410635;
0;04:04:49:347;5.2409077;1.3431472;
0;04:04:49:356;12.531252;4.5382094;
0;04:04:49:367;13.03164;-8.2276745;
0;04:04:49:378;2.717419;4.201824;
0;04:04:49:389;-10.261548;6.9862804;
0;04:04:49:399;3.9863458;1.6591818;
0;04:04:49:409;12.76708;3.8235402;
0;04:04:49:419;-13.396755;-4.056975;
0;04:04:49:429;-0.19273324;10.777499;
0;04:04:49:440;17.392677;-4.581305;
0;04:04:49:451;23.496695;-1.0857705;
0;04:04:49:462;19.267338;-1.5334862;
0;04:04:49:472;14.250289;1.3670892;
0;04:04:49:483;21.660343;3.1866825;
0;04:04:49:493;20.734983;-0.4405331;
0;04:04:49:504;-0.2705448;-14.384364;
0;04:04:49:514;3.5194764;4.256891;
0;04:04:49:525;-8.9279785;-2.6396074;
0;04:04:49:535;0.4345476;-16.253038;
0;04:04:49:546;9.249998;-1.151611;
0;04:04:49:557;39.225403;-8.429984;
0;04:04:49:568;10.941502;-3.643975;
0;04:04:49:578;8.258799;7.880515;
0;04:04:49:589;17.454927;-3.858256;
0;04:04:49:599;6.2871737;-6.467936;
0;04:04:49:609;5.363012;3.0214825;
0;04:04:49:619;6.021417;-10.819398;
0;04:04:49:630;-1.62686;-3.5984852;
0;04:04:49:640;12.112267;-7.7608047;
0;04:04:49:650;10.33936;0.130484;
0;04:04:49:661;10.852917;-0.40462008;
0;04:04:49:671;12.11466;2.0506337;
0;04:04:49:682;9.946711;-5.5018754;
0;04:04:49:692;18.324022;-4.414908;
0;04:04:49:703;8.930372;-4.927267;
0;04:04:49:714;13.904326;0.5446809;
0;04:04:49:724;12.680889;-1.4676456;
0;04:04:49:734;1.1300632;-2.4516625;
0;04:04:49:745;5.0374002;-3.1759086;
0;04:04:49:756;-8.244433;2.9017725;
0;04:04:49:765;11.597513;-4.260482;
0;04:04:49:776;16.43859;-9.883265;
0;04:04:49:787;17.650055;0.4381389;
0;04:04:49:798;13.552379;0.6967127;
0;04:04:49:810;-0.07062895;-1.2808979;
0;04:04:49:821;0.4381389;5.3247046;
0;04:04:49:832;7.8984714;1.7645266;
0;04:04:49:842;12.097901;2.2182279;
0;04:04:49:852;3.2237926;1.115698;
0;04:04:49:862;4.284424;-3.277662;
0;04:04:49:872;4.519056;0.9995792;
0;04:04:49:883;13.324929;5.9400144;
0;04:04:49:894;-2.1308396;1.8770541;
0;04:04:49:904;-12.862848;8.016984;
0;04:04:49:914;-5.518635;0.7170634;
0;04:04:49:925;6.26802;6.3123126;
0;04:04:49:936;7.2101383;3.8726213;
0;04:04:49:947;9.781511;6.2883706;
0;04:04:49:958;0.91338795;5.7544637;
0;04:04:49:969;-10.390836;0.3854665;
0;04:04:49:979;2.030283;6.6415157;
0;04:04:49:989;-5.33069;-2.2637177;
0;04:04:50:000;-0.8475474;7.823054;
0;04:04:50:010;4.4280763;0.52073884;
0;04:04:50:020;3.9576154;3.809175;
0;04:04:50:031;9.016563;1.3910311;
0;04:04:50:041;-5.801151;-0.5530606;
0;04:04:50:051;-2.7605145;5.01705;
0;04:04:50:062;4.489128;3.2273839;
0;04:04:50:072;-1.7585411;3.1411927;
0;04:04:50:082;4.0880995;-1.5861586;
0;04:04:50:093;-3.678691;-1.5526398;
0;04:04:50:103;-3.2812533;0.39863458;
0;04:04:50:114;-6.649895;3.3782187;
0;04:04:50:124;5.645528;2.8933928;
0;04:04:50:134;-7.789535;1.1025299;
0;04:04:50:144;-7.120356;6.23091;
0;04:04:50:155;-0.29807812;1.5023615;
0;04:04:50:166;-5.755661;4.722563;
0;04:04:50:177;6.827066;-4.642357;
0;04:04:50:187;0.5434838;-0.38067806;
0;04:04:50:197;2.219425;-2.505532;
0;04:04:50:208;-6.7767878;0.39863458;
0;04:04:50:219;4.209007;4.546589;
0;04:04:50:229;-3.6415808;0.78888947;
0;04:04:50:240;10.087969;6.4619503;
0;04:04:50:250;0.8475474;-0.25019407;
0;04:04:50:260;-2.670732;-3.217807;
0;04:04:50:271;-0.24181437;1.1372458;
0;04:04:50:282;-8.175002;3.4261026;
0;04:04:50:293;-0.22984336;2.789245;
0;04:04:50:303;1.3072342;4.5801077;
0;04:04:50:314;-0.9696517;0.62488663;
0;04:04:50:324;0.12808979;4.507085;
0;04:04:50:335;0.46567222;3.4201171;
0;04:04:50:345;-13.734338;-0.2837129;
0;04:04:50:355;6.531382;1.9776106;
0;04:04:50:366;-5.493496;2.1751323;
0;04:04:50:376;7.4746976;1.377863;
0;04:04:50:386;-5.7867856;-0.9552865;
0;04:04:50:397;1.1312603;-2.2122424;
0;04:04:50:407;-1.9440918;4.533421;
0;04:04:50:417;4.3538556;4.674679;
0;04:04:50:428;5.699397;2.8550856;
0;04:04:50:438;-4.8039656;0.7673417;
0;04:04:50:449;1.8842367;1.5658079;
0;04:04:50:460;3.6858735;-5.2265425;
0;04:04:50:470;-4.8733974;2.5965118;
0;04:04:50:480;4.5621514;2.0446482;
0;04:04:50:491;-4.382586;3.1759086;
0;04:04:50:502;4.2700586;5.9424086;
0;04:04:50:513;-0.17118542;3.3901896;
0;04:04:50:524;4.9464207;-0.8367735;
0;04:04:50:534;0.21188685;-5.2480903;
0;04:04:50:544;-2.6515784;1.0845734;
0;04:04:50:554;2.7461493;1.5993267;
0;04:04:50:564;-10.304645;-1.6843209;
0;04:04:50:574;-0.5315128;8.024167;
0;04:04:50:584;2.992752;3.8355112;
0;04:04:50:595;-1.163582;4.083311;
0;04:04:50:605;-3.8187518;0.866701;
0;04:04:50:616;4.3646297;-0.9624691;
0;04:04:50:627;0.61650693;-3.2992098;
0;04:04:50:637;-6.3589997;-2.086547;
0;04:04:50:647;-10.308235;-1.0666169;
0;04:04:50:657;0.6943185;5.183447;
0;04:04:50:668;5.8262897;2.5222914;
0;04:04:50:678;0.94810385;-4.425682;
0;04:04:50:689;2.6420016;-2.007538;
0;04:04:50:700;-0.6368576;-5.031415;
0;04:04:50:710;-8.494628;2.1942859;
0;04:04:50:720;3.4237084;6.851008;
0;04:04:50:731;-2.540248;1.1097125;
0;04:04:50:740;1.6915035;0.39145198;
0;04:04:50:750;4.0054994;6.918046;
0;04:04:50:760;-0.6979098;-1.8902222;
0;04:04:50:771;-10.959458;4.7536874;
0;04:04:50:781;3.855862;4.6136265;
0;04:04:50:792;7.7189064;7.2628107;
0;04:04:50:802;-2.3523033;-4.7381253;
0;04:04:50:812;1.7525556;-3.5625722;
0;04:04:50:823;10.704475;0.8511387;
0;04:04:50:833;4.261679;3.6834793;
0;04:04:50:844;4.8219223;0.23942018;
0;04:04:50:854;-0.31483752;0.9828198;
0;04:04:50:864;2.2960393;3.8151605;
0;04:04:50:875;8.028955;1.4053963;
0;04:04:50:886;6.171055;-0.39504328;
0;04:04:50:896;7.2580223;-0.5602432;
0;04:04:50:906;3.83192;1.459266;
0;04:04:50:916;5.5258174;0.6452374;
0;04:04:50:927;-5.765238;-2.9269116;
0;04:04:50:937;4.1575313;2.6168625;
0;04:04:50:948;12.151771;2.9472623;
0;04:04:50:958;5.5748987;-0.0023942017;
0;04:04:50:969;6.384139;4.2784386;
0;04:04:50:980;5.2899885;-3.4524388;
0;04:04:50:990;3.9755719;-7.023391;
0;04:04:51:001;4.1024647;-1.4784195;
0;04:04:51:011;-3.5673606;7.7332716;
0;04:04:51:021;-1.3347675;2.1284454;
0;04:04:51:032;1.9057846;-1.6903064;
0;04:04:51:042;-7.4603324;5.161899;
0;04:04:51:052;7.064092;0.7218518;
0;04:04:51:063;-1.3551182;6.126762;
0;04:04:51:073;13.086706;3.1423898;
0;04:04:51:083;-3.940856;-0.6787562;
0;04:04:51:094;0.30286652;1.34195;
0;04:04:51:104;-6.578069;-6.0681043;
0;04:04:51:115;3.0119057;-0.8295909;
0;04:04:51:126;1.7812861;1.9895816;
0;04:04:51:137;-1.8914193;-2.2984335;
0;04:04:51:147;8.553286;4.1144357;
0;04:04:51:158;-2.9161377;1.2366052;
0;04:04:51:168;3.2992098;4.4687777;
0;04:04:51:179;-1.8219875;-1.0821792;
0;04:04:51:189;-2.657564;-1.0187328;
0;04:04:51:199;-1.8507179;-4.0378213;
0;04:04:51:209;-2.172738;-4.084508;
0;04:04:51:220;8.566454;3.5206735;
0;04:04:51:230;8.367735;1.5239093;
0;04:04:51:240;-15.699978;5.9507885;
0;04:04:51:251;9.533711;6.147113;
0;04:04:51:261;-8.836999;-2.0099323;
0;04:04:51:272;1.7860745;4.7441106;
0;04:04:51:282;-12.179304;-3.2980127;
0;04:04:51:292;0.5386954;-3.5218706;
0;04:04:51:302;1.769315;-6.021417;
0;04:04:51:312;-0.90261406;-0.9983821;
0;04:04:51:322;-4.5884876;0.33518824;
0;04:04:51:332;-0.33638534;2.9029696;
0;04:04:51:343;13.041217;5.104438;
0;04:04:51:353;-3.9564183;-3.3554738;
0;04:04:51:363;-2.682703;3.9109285;
0;04:04:51:374;5.189432;-1.3790601;
0;04:04:51:384;5.7029886;-2.9125464;
0;04:04:51:395;2.8802247;-1.8124107;
0;04:04:51:405;4.2640734;1.0809821;
0;04:04:51:416;-1.5945383;-2.6803088;
0;04:04:51:427;9.572019;0.2837129;
0;04:04:51:437;4.590882;-5.0661306;
0;04:04:51:448;7.381324;-0.80205756;
0;04:04:51:459;11.741165;-2.148796;
0;04:04:51:469;-8.860941;-9.909601;
0;04:04:51:480;2.1703439;-6.575675;
0;04:04:51:490;18.503588;-7.5333557;
0;04:04:51:501;1.5382746;-7.7488337;
0;04:04:51:511;7.523779;-4.7321396;
0;04:04:51:522;12.380417;-3.8522706;
0;04:04:51:532;10.947487;-4.107253;
0;04:04:51:542;17.97806;-6.10282;
0;04:04:51:553;3.071761;10.089166;
0;04:04:51:564;3.0909145;-6.393716;
0;04:04:51:574;12.081141;-0.12689269;
0;04:04:51:585;-3.5745432;-5.270835;
0;04:04:51:594;2.8395233;0.09935937;
0;04:04:51:604;9.543288;-5.3115363;
0;04:04:51:615;10.940305;-2.0362685;
0;04:04:51:625;25.425224;-1.2844892;
0;04:04:51:635;16.371552;0.1364695;
0;04:04:51:646;13.211205;-8.269572;
0;04:04:51:657;23.700203;1.5011644;
0;04:04:51:667;2.043451;-0.427365;
0;04:04:51:678;6.5684924;-7.6470804;
0;04:04:51:688;-11.224017;6.4392056;
0;04:04:51:698;-5.1116204;1.5406688;
0;04:04:51:709;3.4380736;-1.875857;
0;04:04:51:720;7.553706;7.9595237;
0;04:04:51:730;-14.665683;-9.489418;
0;04:04:51:740;14.371196;-0.40342298;
0;04:04:51:751;14.0803;-3.9264908;
0;04:04:51:761;17.732655;-8.402451;
0;04:04:51:772;21.654358;-6.769605;
0;04:04:51:782;32.052376;-2.1200657;
0;04:04:51:793;18.330008;-1.6759412;
0;04:04:51:804;7.406463;-5.614403;
0;04:04:51:814;7.85777;-0.40102878;
0;04:04:51:825;6.7708025;-8.008605;
0;04:04:51:836;-0.022744916;7.0688806;
0;04:04:51:847;-1.9476831;-3.952827;
0;04:04:51:857;12.964602;4.5118732;
0;04:04:51:867;3.0298622;0.581791;
0;04:04:51:878;14.178462;-0.0023942017;
0;04:04:51:889;15.563508;-1.7992426;
0;04:04:51:899;18.780119;-7.6626425;
0;04:04:51:909;11.596316;-3.7696705;
0;04:04:51:920;18.429367;-1.0594343;
0;04:04:51:930;15.610195;-4.4639893;
0;04:04:51:941;10.237606;-4.5238442;
0;04:04:51:951;-3.38181;10.364499;
0;04:04:51:962;3.2130187;4.390966;
0;04:04:51:973;4.0617633;5.744887;
0;04:04:51:984;6.7444663;-1.0175357;
0;04:04:51:994;3.309984;12.847286;
0;04:04:52:005;5.66947;12.239159;
0;04:04:52:015;11.415554;-2.2098482;
0;04:04:52:026;3.7600937;10.357317;
0;04:04:52:036;3.0681696;-3.525462;
0;04:04:52:046;18.488026;0.80445176;
0;04:04:52:057;2.2014685;2.6527755;
0;04:04:52:067;1.8411411;8.005013;
0;04:04:52:077;3.2680852;3.1974564;
0;04:04:52:087;6.220136;2.6982653;
0;04:04:52:097;10.563218;3.799598;
0;04:04:52:107;-5.1666875;-0.1400608;
0;04:04:52:117;3.2381577;9.587581;
0;04:04:52:127;4.3143516;7.1107793;
0;04:04:52:137;4.8614264;1.9452889;
0;04:04:52:148;4.6950297;2.1535845;
0;04:04:52:159;-1.5286977;3.551798;
0;04:04:52:169;-5.765238;-0.7769185;
0;04:04:52:179;9.672575;7.8948803;
0;04:04:52:189;-1.1061212;6.4751186;
0;04:04:52:200;-2.6491842;6.4008985;
0;04:04:52:210;-2.4827871;5.201403;
0;04:04:52:220;-2.8491;5.9687448;
0;04:04:52:230;-3.4596214;-0.09935937;
0;04:04:52:240;3.0095115;-1.8112136;
0;04:04:52:251;-1.9560628;4.560954;
0;04:04:52:261;-2.6551697;1.270124;
0;04:04:52:271;3.8259344;6.918046;
0;04:04:52:282;3.2752678;2.1906946;
0;04:04:52:293;1.0354922;4.817134;
0;04:04:52:303;-7.297527;-0.14724341;
0;04:04:52:314;-6.600814;1.4867992;
0;04:04:52:325;0.007182605;0.19752164;
0;04:04:52:336;0.50637364;1.541866;
0;04:04:52:346;2.565387;3.9815574;
0;04:04:52:357;0.044292733;0.521936;
0;04:04:52:367;-1.0402806;2.6300306;
0;04:04:52:377;-0.46208093;0.6655881;
0;04:04:52:388;-3.0502129;0.61052144;
0;04:04:52:398;0.34117374;4.4005427;
0;04:04:52:409;0.24779987;3.9444473;
0;04:04:52:421;4.55856;5.3402667;
0;04:04:52:431;3.7241807;5.711368;
0;04:04:52:442;0.33039984;2.870648;
0;04:04:52:452;-3.300407;-3.311181;
0;04:04:52:463;-6.027403;-0.5686229;
0;04:04:52:473;-6.7863646;2.3834279;
0;04:04:52:484;-3.5218706;1.6986861;
0;04:04:52:494;13.06875;4.6483426;
0;04:04:52:505;-9.659407;-1.8136078;
0;04:04:52:515;-4.5992613;3.2489316;
0;04:04:52:526;4.6519337;1.8842367;
0;04:04:52:536;-2.4169466;-0.19752164;
0;04:04:52:547;-0.94331545;0.94570965;
0;04:04:52:557;-6.4523735;3.3446999;
0;04:04:52:568;-4.471172;2.9891608;
0;04:04:52:579;0.85473;-2.9724014;
0;04:04:52:589;-4.5274353;1.1049241;
0;04:04:52:599;4.638766;5.246893;
0;04:04:52:610;-3.1962593;2.2613235;
0;04:04:52:621;-4.915296;-6.70975;
0;04:04:52:632;-0.91817635;-4.5896845;
0;04:04:52:642;-3.3985693;2.1284454;
0;04:04:52:653;14.065935;9.7324295;
0;04:04:52:663;3.6978445;1.5825673;
0;04:04:52:674;-10.429143;-3.05141;
0;04:04:52:684;4.5262384;9.009381;
0;04:04:52:694;1.4927847;-1.4209588;
0;04:04:52:705;-10.682928;-5.2875943;
0;04:04:52:716;-1.8962077;-3.705027;
0;04:04:52:725;-8.280347;-10.2735195;
0;04:04:52:736;-0.7661445;-0.12569559;
0;04:04:52:747;-15.121778;-7.3909006;
0;04:04:52:757;-3.3303347;-10.557233;
0;04:04:52:768;7.2221093;3.6858735;
0;04:04:52:778;-0.51954174;4.274847;
0;04:04:52:789;-6.7253127;8.653842;
0;04:04:52:800;-9.246407;-0.8571242;
0;04:04:52:810;8.400057;8.236053;
0;04:04:52:821;0.14604631;4.6339774;
0;04:04:52:831;-2.9221232;8.7125;
0;04:04:52:842;4.3777976;7.41604;
0;04:04:52:852;-16.254236;0.009576807;
0;04:04:52:863;5.8442464;-0.7326257;
0;04:04:52:874;2.3092074;-10.6877165;
0;04:04:52:884;0.6380547;-1.2880806;
0;04:04:52:894;6.963536;-5.0876784;
0;04:04:52:904;-9.277532;2.6240451;
0;04:04:52:914;2.4169466;11.48738;
0;04:04:52:924;-1.412579;-2.7928362;
0;04:04:52:935;-3.9133227;6.6893997;
0;04:04:52:947;4.1120415;1.8243817;
0;04:04:52:957;-3.1830912;-2.4875755;
0;04:04:52:968;2.8167782;0.5434838;
0;04:04:52:979;0.6356605;-3.857059;
0;04:04:52:990;-0.4417302;3.4452562;
0;04:04:53:000;-1.0965444;0.093373865;
0;04:04:53:010;-0.2801216;4.571728;
0;04:04:53:020;2.8921957;5.5401826;
0;04:04:53:031;1.282095;-8.74123;
0;04:04:53:042;4.721366;-5.4204726;
0;04:04:53:052;4.2042184;1.364695;
0;04:04:53:063;-19.267338;0.35434186;
0;04:04:53:073;-3.430891;-7.4495587;
0;04:04:53:084;-10.251971;-10.510546;
0;04:04:53:094;1.8614918;6.343437;
0;04:04:53:105;-13.517663;0.10654198;
0;04:04:53:116;-3.3075895;0.78649527;
0;04:04:53:125;-7.6710224;-5.8215013;
0;04:04:53:135;-8.942344;1.1264719;
0;04:04:53:146;-6.8773446;5.955577;
0;04:04:53:155;-2.2146366;-6.740875;
0;04:04:53:166;2.1068976;-5.765238;
0;04:04:53:177;-0.59735334;10.759542;
0;04:04:53:188;-25.048138;-20.682312;
0;04:04:53:199;-0.49320555;5.910087;
0;04:04:53:210;-0.41180268;-0.7697359;
0;04:04:53:220;-31.638178;-19.2003;
0;04:04:53:231;2.7593174;3.110068;
0;04:04:53:241;2.3582888;3.345897;
0;04:04:53:251;9.546879;-5.8346696;
0;04:04:53:262;-6.161478;-1.2773066;
0;04:04:53:272;-11.320983;0.19033903;
0;04:04:53:283;6.160281;4.807557;
0;04:04:53:293;-16.739061;-5.16549;
0;04:04:53:303;-20.667946;-5.365406;
0;04:04:53:314;-18.31325;-4.232949;
0;04:04:53:324;-8.528147;-7.929596;
0;04:04:53:335;-7.144298;-0.020350715;
0;04:04:53:345;-15.458163;-3.2070332;
0;04:04:53:355;-5.1379566;-3.952827;
0;04:04:53:365;-13.627796;0.22026655;
0;04:04:53:376;-13.158532;-7.217321;
0;04:04:53:387;-10.111911;-0.2621651;
0;04:04:53:398;-16.14051;-6.7229185;
0;04:04:53:409;-15.662868;-3.4332852;
0;04:04:53:419;-12.02009;1.7513585;
0;04:04:53:429;-3.3854012;-3.5793316;
0;04:04:53:440;-5.7963624;0.48123455;
0;04:04:53:450;-9.363723;1.5358804;
0;04:04:53:461;-12.3038025;-4.5322237;
0;04:04:53:471;-16.992847;-1.5239093;
0;04:04:53:481;-5.3713913;-2.5893292;
0;04:04:53:492;-5.374983;1.377863;
0;04:04:53:502;-7.253234;-2.0326772;
0;04:04:53:513;-15.823279;-2.4624364;
0;04:04:53:523;-9.405622;0.32202014;
0;04:04:53:533;-7.062895;0.61291564;
0;04:04:53:544;-11.480197;-2.4408886;
0;04:04:53:554;-0.61770403;-3.0226796;
0;04:04:53:565;-13.917495;-3.4380736;
0;04:04:53:577;-8.491036;-2.4001873;
0;04:04:53:586;-15.946581;-4.55856;
0;04:04:53:598;-10.9187565;-7.061698;
0;04:04:53:608;-0.2681506;3.265691;
0;04:04:53:619;-0.19752164;-0.79367787;
0;04:04:53:629;-7.7931266;1.9057846;
0;04:04:53:640;-11.525687;-1.4808137;
0;04:04:53:651;-3.2261868;-0.5410896;
0;04:04:53:662;-6.649895;0.6655881;
0;04:04:53:672;-2.657564;-0.93972415;
0;04:04:53:682;-4.841076;3.8498764;
0;04:04:53:693;-4.6124296;-3.110068;
0;04:04:53:703;-11.501745;-1.0175357;
0;04:04:53:714;-7.406463;0.81761986;
0;04:04:53:724;0.8511387;6.730101;
0;04:04:53:735;-1.6292542;1.2258313;
0;04:04:53:745;-4.23654;0.973243;
0;04:04:53:756;-4.533421;3.3973722;
0;04:04:53:765;-4.55856;3.4344823;
0;04:04:53:776;2.8203697;6.751649;
0;04:04:53:787;0.48243165;4.596867;
0;04:04:53:797;9.004593;2.861071;
0;04:04:53:808;-7.3166804;3.964798;
0;04:04:53:818;4.2544966;0.9744401;
0;04:04:53:829;-3.7696705;6.6056023;
0;04:04:53:840;-5.625177;1.0426749;
0;04:04:53:850;-2.1823149;5.2540755;
0;04:04:53:860;-3.6391866;5.007473;
0;04:04:53:872;0.2813187;4.5406036;
0;04:04:53:883;2.6779146;3.309984;
0;04:04:53:894;-0.4333505;0.5746084;
0;04:04:53:904;-3.6296098;3.6332011;
0;04:04:53:915;-0.7565677;3.2130187;
0;04:04:53:926;-1.021127;2.0446482;
0;04:04:53:936;-0.664391;-0.17597382;
0;04:04:53:947;1.0366893;0.14724341;
0;04:04:53:958;0.2837129;-1.7381904;
0;04:04:53:968;0.46208093;3.3039982;
0;04:04:53:978;-7.4711065;0.5734113;
0;04:04:53:989;-3.9995139;4.794389;
0;04:04:53:999;9.403227;3.3123782;
0;04:04:54:009;0.32920274;3.2573113;
0;04:04:54:020;-3.1651347;-2.292448;
0;04:04:54:031;4.7560816;4.685453;
0;04:04:54:042;8.774749;1.9835961;
0;04:04:54:053;-4.0677485;4.531027;
0;04:04:54:063;-4.8745947;-0.8415619;
0;04:04:54:074;5.6790466;0.59136784;
0;04:04:54:085;0.830788;5.3725886;
0;04:04:54:095;0.17118542;1.5035586;
0;04:04:54:106;-3.810372;5.5760956;
0;04:04:54:117;4.7381253;-3.5673606;
0;04:04:54:127;1.7022774;2.882619;
0;04:04:54:138;-0.50876784;-1.0390835;
0;04:04:54:148;-6.903681;0.92416185;
0;04:04:54:158;7.035362;4.345476;
0;04:04:54:169;9.375694;4.346673;
0;04:04:54:180;-2.681506;-4.4125137;
0;04:04:54:191;3.8594532;5.8909335;
0;04:04:54:202;-0.9947908;0.92775315;
0;04:04:54:212;-6.987478;-0.19871874;
0;04:04:54:223;-0.39983168;5.16549;
0;04:04:54:233;-4.047398;-0.32800564;
0;04:04:54:243;-3.845088;-2.267309;
0;04:04:54:254;-1.6867151;-0.5482722;
0;04:04:54:264;-0.80924016;-1.9261353;
0;04:04:54:274;-0.5722142;2.7629087;
0;04:04:54:285;6.0501475;3.9803603;
0;04:04:54:296;-1.2413936;3.4919431;
0;04:04:54:307;5.116409;4.8279076;
0;04:04:54:317;3.727772;-1.1899183;
0;04:04:54:328;-4.620809;-4.296395;
0;04:04:54:338;-1.0965444;-2.2541409;
0;04:04:54:348;2.7760768;-1.2557588;
0;04:04:54:359;-2.645593;-1.1911154;
0;04:04:54:369;2.858677;5.321113;
0;04:04:54:379;0.30286652;3.6092591;
0;04:04:54:390;4.6339774;5.628768;
0;04:04:54:400;1.5957354;-2.8083985;
0;04:04:54:411;1.8016368;-5.5701103;
0;04:04:54:421;-3.83192;-1.7741034;
0;04:04:54:432;-4.0414124;2.5103204;
0;04:04:54:442;-6.513426;3.2561142;
0;04:04:54:453;5.6802435;2.4396915;
0;04:04:54:463;3.9228995;4.531027;
0;04:04:54:473;2.6024973;-5.279215;
0;04:04:54:484;5.4803276;-0.2681506;
0;04:04:54:495;-0.49081135;2.3319526;
0;04:04:54:506;-1.3934253;9.01776;
0;04:04:54:517;-2.7114334;-1.2354081;
0;04:04:54:528;6.4368114;6.2105594;
0;04:04:54:538;8.816648;0.5662287;
0;04:04:54:549;-2.2122424;0.19632454;
0;04:04:54:560;-11.4598465;-6.3326635;
0;04:04:54:571;-7.0090256;1.0175357;
0;04:04:54:581;-1.8387469;0.24899697;
0;04:04:54:592;0.90141696;8.115147;
0;04:04:54:602;5.483919;-1.6819267;
0;04:04:54:613;-1.2808979;5.853823;
0;04:04:54:623;7.0090256;-1.3383588;
0;04:04:54:634;-2.030283;1.7142484;
0;04:04:54:644;3.3889925;-2.2613235;
0;04:04:54:655;3.1064768;5.544971;
0;04:04:54:666;0.7350199;-1.2797008;
0;04:04:54:677;1.9656396;5.1822495;
0;04:04:54:688;4.332308;0.59017074;
0;04:04:54:698;8.359355;9.473856;
0;04:04:54:710;6.566098;1.2952632;
0;04:04:54:721;2.480393;2.6850972;
0;04:04:54:731;9.127894;3.655946;
0;04:04:54:742;5.161899;2.3678656;
0;04:04:54:752;11.110293;1.7238252;
0;04:04:54:763;-4.1395745;-1.1899183;
0;04:04:54:774;9.781511;-0.4177882;
0;04:04:54:784;12.318168;-1.0007763;
0;04:04:54:794;9.08001;-2.067393;
0;04:04:54:805;14.378378;0.89662856;
0;04:04:54:816;0.5734113;2.3535004;
0;04:04:54:827;5.5760956;-0.36750996;
0;04:04:54:837;7.1754227;2.7353754;
0;04:04:54:847;4.995502;1.1815386;
0;04:04:54:858;4.605247;0.61052144;
0;04:04:54:868;9.190144;-0.93373865;
0;04:04:54:878;2.2541409;4.8374844;
0;04:04:54:888;6.245275;3.6858735;
0;04:04:54:899;0.724246;2.7162218;
0;04:04:54:909;3.952827;1.5562311;
0;04:04:54:919;4.6662993;-0.82599956;
0;04:04:54:930;7.2963295;0.7062895;
0;04:04:54:941;4.0857053;1.9955671;
0;04:04:54:950;7.8876977;1.1959038;
0;04:04:54:960;-5.3282957;-4.38498;
0;04:04:54:970;1.8088194;-2.791639;
0;04:04:54:981;-3.539827;-3.0945058;
0;04:04:54:992;3.2154129;-1.2797008;
0;04:04:55:002;-1.5729905;-3.7134068;
0;04:04:55:013;-6.171055;-2.4959552;
0;04:04:55:023;4.0378213;5.2385135;
0;04:04:55:033;-5.6910176;-7.9224133;
0;04:04:55:044;-3.6343982;0.8487445;
0;04:04:55:054;1.3587095;-1.3934253;
0;04:04:55:065;-8.571242;-6.3769565;
0;04:04:55:076;-6.4416;-0.91817635;
0;04:04:55:087;-8.407239;-4.1515455;
0;04:04:55:097;-12.142194;-0.12928689;
0;04:04:55:107;-10.375273;2.195483;
0;04:04:55:118;-6.603208;-1.5646108;
0;04:04:55:128;-6.265626;0.5518635;
0;04:04:55:138;-9.969456;-2.3989902;
0;04:04:55:149;-9.264363;-2.9783869;
0;04:04:55:159;-7.501034;-3.0478187;
0;04:04:55:170;-8.865729;-1.5346833;
0;04:04:55:180;-8.027759;-4.6938324;
0;04:04:55:192;-11.4598465;-0.06823475;
0;04:04:55:202;-11.112687;-6.980295;
0;04:04:55:212;-13.567941;-0.985214;
0;04:04:55:223;-9.463082;-3.7193923;
0;04:04:55:233;-4.495114;-4.583699;
0;04:04:55:244;-11.439496;-0.5674258;
0;04:04:55:254;-9.241618;-0.022744916;
0;04:04:55:264;-5.1690817;-3.5122938;
0;04:04:55:275;0.415394;-0.37828386;
0;04:04:55:285;-4.0402155;-2.754529;
0;04:04:55:296;-14.541184;0.2765303;
0;04:04:55:306;-10.8948145;-3.9360676;
0;04:04:55:316;-16.288952;-4.9296613;
0;04:04:55:326;-3.1639376;0.29328972;
0;04:04:55:336;-8.8645315;-0.7469909;
0;04:04:55:346;-1.8590976;-2.8622682;
0;04:04:55:356;-12.269087;-1.9273324;
0;04:04:55:366;-12.328941;-1.567005;
0;04:04:55:376;-6.9611416;3.3770216;
0;04:04:55:386;-4.882974;-1.567005;
0;04:04:55:397;-6.873753;-5.7724204;
0;04:04:55:407;-12.852075;-5.267244;
0;04:04:55:418;-14.018051;-5.5401826;
0;04:04:55:429;-10.33936;-3.9791632;
0;04:04:55:439;1.6124948;-0.415394;
0;04:04:55:450;1.555034;-2.6779146;
0;04:04:55:460;-21.811178;-3.6020765;
0;04:04:55:471;-9.828198;-3.3123782;
0;04:04:55:481;-11.476605;-5.4384294;
0;04:04:55:491;-12.612655;-1.5346833;
0;04:04:55:501;-7.261614;-3.930082;
0;04:04:55:512;-13.464991;0.7110779;
0;04:04:55:522;-14.159308;-2.0362685;
0;04:04:55:533;4.131195;4.2904096;
0;04:04:55:543;-2.5821466;-1.4209588;
0;04:04:55:555;-1.9129672;0.9576807;
0;04:04:55:564;-18.995596;-3.6954503;
0;04:04:55:574;-7.0425444;0.7565677;
0;04:04:55:585;-6.853402;-1.6005238;
0;04:04:55:594;-8.377312;-2.6312277;
0;04:04:55:604;-2.372654;0.5614403;
0;04:04:55:614;-13.597869;-3.1004913;
0;04:04:55:625;-6.951565;-0.22864626;
0;04:04:55:636;-11.192893;-0.93134445;
0;04:04:55:647;-1.9500773;3.606865;
0;04:04:55:657;-8.74123;-1.127669;
0;04:04:55:668;-5.78918;4.489128;
0;04:04:55:679;-2.7569232;4.6926355;
0;04:04:55:689;-6.223727;3.0705638;
0;04:04:55:700;-1.6938977;5.035006;
0;04:04:55:710;3.620033;10.206482;
0;04:04:55:720;-2.9616275;7.4387846;
0;04:04:55:731;-5.7065797;5.4863133;
0;04:04:55:742;-8.932767;1.9716251;
0;04:04:55:752;-6.5696893;4.309563;
0;04:04:55:763;-3.8534677;4.1635165;
0;04:04:55:773;0.1436521;5.7999535;
0;04:04:55:784;-5.064934;5.068525;
0;04:04:55:795;-2.0350714;4.0545807;
0;04:04:55:804;-1.1456255;4.1132383;
0;04:04:55:814;1.0139444;4.997896;
0;04:04:55:825;-0.94930094;2.705448;
0;04:04:55:836;-3.1352072;1.0905589;
0;04:04:55:849;1.541866;6.220136;
0;04:04:55:860;-1.0809821;7.349002;
0;04:04:55:871;-2.7257986;1.0702082;
0;04:04:55:882;-0.9816227;6.7133417;
0;04:04:55:893;-0.17357962;3.4739866;
0;04:04:55:903;0.30047232;1.7513585;
0;04:04:55:914;2.1619642;-1.6891093;
0;04:04:55:925;-5.521029;1.5646108;
0;04:04:55:935;-1.6771383;4.5525746;
0;04:04:55:945;-2.3343468;3.4560301;
0;04:04:55:956;6.8007298;8.129512;
0;04:04:55:968;-1.1911154;1.4544775;
0;04:04:55:979;-2.6982653;4.417302;
0;04:04:55:989;0.7433996;3.2321723;
0;04:04:56:000;-2.2230163;5.804742;
0;04:04:56:011;-1.9321208;0.47165772;
0;04:04:56:021;-5.531803;2.4588451;
0;04:04:56:031;-2.3834279;0.29448682;
0;04:04:56:042;-2.4253263;0.16400282;
0;04:04:56:052;0.3196259;2.3774424;
0;04:04:56:062;-3.0083144;4.1706996;
0;04:04:56:073;-1.3455414;4.095282;
0;04:04:56:083;-4.132392;5.1882353;
0;04:04:56:094;0.19153613;2.0757728;
0;04:04:56:105;-4.035427;-0.2801216;
0;04:04:56:116;2.5342624;2.4157495;
0;04:04:56:127;-3.539827;3.5242648;
0;04:04:56:138;-4.763264;3.5769374;
0;04:04:56:149;-0.50757074;4.748899;
0;04:04:56:158;3.004723;4.8853683;
0;04:04:56:168;2.171541;-0.35673606;
0;04:04:56:178;0.9768343;-1.1971009;
0;04:04:56:188;5.9519854;3.2465374;
0;04:04:56:199;-3.6535518;4.2700586;
0;04:04:56:210;-7.6853876;-0.2657564;
0;04:04:56:220;-2.5917234;10.09994;
0;04:04:56:231;-0.60693014;4.096479;
0;04:04:56:241;-2.2936451;0.9900024;
0;04:04:56:251;-0.5662287;5.4204726;
0;04:04:56:262;-3.6116533;-2.5151088;
0;04:04:56:273;-1.6531962;3.7960067;
0;04:04:56:283;6.540959;3.6739025;
0;04:04:56:294;0.6715736;-1.115698;
0;04:04:56:305;1.30484;4.8937483;
0;04:04:56:316;-5.8358665;0.30286652;
0;04:04:56:326;3.654749;7.675811;
0;04:04:56:336;-2.2529438;-1.4736311;
0;04:04:56:347;0.010773907;7.9451585;
0;04:04:56:357;11.044453;0.48602295;
0;04:04:56:368;-12.155362;-0.50517654;
0;04:04:56:379;-3.7373488;4.128801;
0;04:04:56:390;-5.5988407;6.7121444;
0;04:04:56:401;-3.144784;2.042254;
0;04:04:56:411;-1.8064252;4.334702;
0;04:04:56:422;9.085996;2.542642;
0;04:04:56:432;-4.7896004;1.1755531;
0;04:04:56:443;0.40701428;3.4464533;
0;04:04:56:453;-12.759898;-3.527856;
0;04:04:56:464;6.8641763;-4.344279;
0;04:04:56:475;-4.0066967;-4.0557775;
0;04:04:56:486;26.00582;4.6232033;
0;04:04:56:495;-17.454927;24.266432;
0;04:04:56:506;-6.7480574;-10.407595;
0;04:04:56:517;4.6591167;6.879739;
0;04:04:56:528;-0.49559975;7.645883;
0;04:04:56:539;-4.9679685;-4.5142674;
0;04:04:56:550;8.889671;2.7748797;
0;04:04:56:560;-1.9548657;-1.7130513;
0;04:04:56:570;0.25019407;2.2337902;
0;04:04:56:581;-1.6232687;4.984728;
0;04:04:56:592;3.5422213;3.4835634;
0;04:04:56:603;0.641646;4.224569;
0;04:04:56:613;5.935226;-1.2126632;
0;04:04:56:624;-0.5398925;-7.2939353;
0;04:04:56:634;-7.7608047;-4.892551;
0;04:04:56:645;1.8590976;7.337031;
0;04:04:56:656;-5.377377;1.6543933;
0;04:04:56:667;-0.4189853;0.7326257;
0;04:04:56:677;10.0987425;2.7868507;
0;04:04:56:688;-5.5270147;-3.58412;
0;04:04:56:698;-5.5856724;4.4161053;
0;04:04:56:709;-1.8327614;6.0202203;
0;04:04:56:720;-7.98586;-2.135628;
0;04:04:56:731;-4.450821;1.0534488;
0;04:04:56:741;3.1136594;4.6459484;
0;04:04:56:752;-10.351331;-3.809175;
0;04:04:56:762;3.3518825;3.6894648;
0;04:04:56:773;-4.1299977;-3.6595373;
0;04:04:56:783;-11.657368;-0.91458505;
0;04:04:56:793;-6.956353;-3.2716765;
0;04:04:56:804;-7.466318;-1.7860745;
0;04:04:56:815;-8.8884735;-4.7896004;
0;04:04:56:825;-1.6555905;-0.6667852;
0;04:04:56:837;-2.7269957;-0.39264908;
0;04:04:56:846;-10.42196;-6.0824695;
0;04:04:56:857;-8.461109;-0.44891283;
0;04:04:56:868;-0.7230489;-0.34237084;
0;04:04:56:878;-3.6343982;-2.0159178;
0;04:04:56:889;-10.432734;-5.2444987;
0;04:04:56:900;-7.145495;-0.1316811;
0;04:04:56:910;-0.7433996;2.44448;
0;04:04:56:920;-9.929952;-3.5553896;
0;04:04:56:931;-18.466478;-3.1184478;
0;04:04:56:941;-14.038402;-6.2261214;
0;04:04:56:952;0.3172317;-2.0506337;
0;04:04:56:963;-11.683704;-3.8654387;
0;04:04:56:973;-7.7368627;-9.543288;
0;04:04:56:984;0.07062895;-3.6942532;
0;04:04:56:995;-20.954054;0.11971009;
0;04:04:57:005;-10.751163;-11.972205;
0;04:04:57:016;-2.954445;2.1571758;
0;04:04:57:029;4.8602295;-0.48123455;
0;04:04:57:040;-19.012356;2.2864625;
0;04:04:57:050;-3.3423057;-2.8670566;
0;04:04:57:060;-16.870743;-2.1535845;
0;04:04:57:071;-25.269602;-3.7457285;
0;04:04:57:082;-6.432023;-2.7138276;
0;04:04:57:093;-7.049727;-1.8136078;
0;04:04:57:104;-10.967838;0.1436521;
0;04:04:57:115;-5.403713;-2.3415294;
0;04:04:57:125;3.8510735;-4.021062;
0;04:04:57:136;5.4982843;6.302736;
0;04:04:57:145;-8.619126;-0.8583213;
0;04:04:57:156;-1.0366893;-3.4751837;
0;04:04:57:167;-18.173187;1.4449008;
0;04:04:57:177;-20.591331;-7.771579;
0;04:04:57:188;-10.080787;2.7569232;
0;04:04:57:198;-9.179369;-6.2045736;
0;04:04:57:208;-11.705252;1.2665327;
0;04:04:57:219;5.837064;-0.8714894;
0;04:04:57:229;3.289633;-1.3024458;
0;04:04:57:240;1.8243817;-0.4297592;
0;04:04:57:251;1.6639702;3.0430303;
0;04:04:57:261;-19.783289;1.1372458;
0;04:04:57:272;-1.496376;-2.7952304;
0;04:04:57:282;1.0163386;4.746505;
0;04:04:57:292;-20.25375;0.32920274;
0;04:04:57:303;13.478158;0.8343793;
0;04:04:57:313;-7.9786773;4.4448357;
0;04:04:57:324;7.905654;-2.5893292;
0;04:04:57:334;-13.401544;5.1607018;
0;04:04:57:344;-0.015562311;-2.8299465;
0;04:04:57:354;-14.164097;3.8738184;
0;04:04:57:364;-12.321759;-1.9883845;
0;04:04:57:375;-10.821792;2.682703;
0;04:04:57:385;-6.042965;5.8813562;
0;04:04:57:395;-6.1303535;2.2457612;
0;04:04:57:406;-9.132683;0.12808979;
0;04:04:57:416;-10.259154;-0.8619126;
0;04:04:57:426;0.61411273;5.1690817;
0;04:04:57:437;-7.753622;2.3511062;
0;04:04:57:447;-3.8295257;3.8714242;
0;04:04:57:457;4.373009;5.755661;
0;04:04:57:468;-4.322731;5.7389016;
0;04:04:57:478;1.8926164;3.9228995;
0;04:04:57:489;-1.2593501;1.6160861;
0;04:04:57:499;1.8387469;-4.5274353;
0;04:04:57:510;4.832696;-0.39624038;
0;04:04:57:520;-1.1420342;-0.92296475;
0;04:04:57:530;0.91578215;1.8818425;
0;04:04:57:540;8.062474;3.954024;
0;04:04:57:550;2.3558946;3.834314;
0;04:04:57:560;-1.9668367;0.19153613;
0;04:04:57:571;8.119935;1.9428947;
0;04:04:57:580;6.7145386;2.9987376;
0;04:04:57:590;8.407239;-1.0809821;
0;04:04:57:601;1.5298948;5.6239796;
0;04:04:57:611;4.674679;-0.80205756;
0;04:04:57:621;1.7633295;4.7429137;
0;04:04:57:632;1.8423382;0.34356794;
0;04:04:57:642;-6.256049;-1.3982137;
0;04:04:57:652;-1.4808137;0.1376666;
0;04:04:57:662;7.3466077;7.201759;
0;04:04:57:672;7.40766;-0.021547815;
0;04:04:57:682;-1.6208745;4.921282;
0;04:04:57:693;10.255563;1.0163386;
0;04:04:57:704;-0.12330139;-1.8016368;
0;04:04:57:715;0.8571242;-1.0354922;
0;04:04:57:725;3.071761;2.8550856;
0;04:04:57:736;1.6663644;0.11971009;
0;04:04:57:746;-3.9384618;5.8586116;
0;04:04:57:756;-5.2959743;2.5582044;
0;04:04:57:767;9.882068;-2.1655555;
0;04:04:57:777;2.4899697;-0.50278234;
0;04:04:57:788;-2.5318682;-4.614824;
0;04:04:57:798;-5.6586957;7.20535;
0;04:04:57:808;-2.0494366;7.9726915;
0;04:04:57:818;-2.5366566;5.3678;
0;04:04:57:828;6.4392056;5.711368;
0;04:04:57:838;3.5170822;3.3028011;
0;04:04:57:848;4.757279;2.3427265;
0;04:04:57:858;-1.4137762;-5.1547165;
0;04:04:57:869;1.2904748;1.9847932;
0;04:04:57:879;-6.314707;-3.229778;
0;04:04:57:890;-1.174356;0.10654198;
0;04:04:57:900;-0.2717419;1.8782512;
0;04:04:57:910;-8.699332;-0.61171854;
0;04:04:57:920;0.9684546;0.059855044;
0;04:04:57:930;-0.7553706;4.4723687;
0;04:04:57:940;-1.8435353;1.0295067;
0;04:04:57:950;2.6013002;-2.5558102;
0;04:04:57:961;11.1174755;3.8642416;
0;04:04:57:971;-12.48217;-3.8905778;
0;04:04:57:981;1.8782512;9.5971575;
0;04:04:57:992;-0.59974754;1.8974048;
0;04:04:58:002;4.473566;3.5745432;
0;04:04:58:013;2.7844565;3.9396589;
0;04:04:58:023;2.7353754;-1.7729063;
0;04:04:58:034;-8.118738;1.958457;
0;04:04:58:044;5.732916;1.2366052;
0;04:04:58:054;-5.8334723;-3.0669725;
0;04:04:58:064;-6.96593;2.72939;
0;04:04:58:074;-5.1822495;-0.4297592;
0;04:04:58:085;7.4687123;-0.93493575;
0;04:04:58:096;0.4297592;3.9121256;
0;04:04:58:107;-2.7030537;3.2932243;
0;04:04:58:116;-3.1387985;4.1695023;
0;04:04:58:127;-0.32202014;1.2785037;
0;04:04:58:137;1.6950948;2.9005754;
0;04:04:58:148;-1.4425066;0.4417302;
0;04:04:58:158;-6.2464724;-5.171476;
0;04:04:58:168;-3.6332011;-4.2556934;
0;04:04:58:178;-3.8989575;9.14585;
0;04:04:58:188;7.691373;16.572664;
0;04:04:58:199;6.1327477;2.9017725;
0;04:04:58:209;-8.905233;-2.3930047;
0;04:04:58:219;7.872135;10.044873;
0;04:04:58:230;-6.7708025;-2.0386627;
0;04:04:58:239;16.932991;3.0059202;
0;04:04:58:249;21.679497;8.161834;
0;04:04:58:259;1.3706805;-2.1404164;
0;04:04:58:269;0.16400282;6.3542113;
0;04:04:58:280;-4.332308;-3.3028011;
0;04:04:58:289;6.143522;2.0973208;
0;04:04:58:300;-3.6140475;-9.415198;
0;04:04:58:311;7.9427643;-4.8662148;
0;04:04:58:322;-3.7672763;-4.923676;
0;04:04:58:332;9.240421;-1.3144168;
0;04:04:58:342;16.699556;1.6950948;
0;04:04:58:353;-0.79248077;5.153519;
0;04:04:58:363;3.086126;2.9101522;
0;04:04:58:373;6.319495;1.3156139;
0;04:04:58:384;3.8235402;-0.079008654;
0;04:04:58:395;2.8048072;-5.3606176;
0;04:04:58:406;3.8857894;-2.5486276;
0;04:04:58:415;17.96609;-8.312668;
0;04:04:58:426;-0.7769185;1.7812861;
0;04:04:58:437;-1.4796166;-9.174581;
0;04:04:58:446;10.064027;6.0884547;
0;04:04:58:457;-2.0290859;-4.4699745;
0;04:04:58:467;15.407885;-0.56982;
0;04:04:58:478;9.61272;0.50158525;
0;04:04:58:488;13.941437;-2.4911668;
0;04:04:58:499;10.976217;-4.048595;
0;04:04:58:510;8.154651;0.14963761;
0;04:04:58:521;6.0800753;-9.210494;
0;04:04:58:532;11.888409;2.1152773;
0;04:04:58:541;11.773487;1.8411411;
0;04:04:58:552;-2.0242975;4.1503487;
0;04:04:58:561;20.500353;2.3558946;
0;04:04:58:572;15.292963;0.93134445;
0;04:04:58:582;-18.367119;-1.0833763;
0;04:04:58:592;6.278794;-8.002619;
0;04:04:58:602;14.064738;-5.7125654;
0;04:04:58:613;9.434352;4.8003745;
0;04:04:58:623;11.482592;-14.205996;
0;04:04:58:633;13.0519905;1.8112136;
0;04:04:58:643;9.473856;4.2796354;
0;04:04:58:654;-14.67885;-5.5341973;
0;04:04:58:664;1.6017209;3.882198;
0;04:04:58:675;17.592594;-7.1826053;
0;04:04:58:685;3.4261026;4.993108;
0;04:04:58:695;28.104336;-9.423578;
0;04:04:58:705;-2.0231004;-10.281899;
0;04:04:58:715;16.267403;10.035296;
0;04:04:58:726;26.00582;-8.078036;
0;04:04:58:736;24.966736;-3.357868;
0;04:04:58:746;-1.401805;2.2828712;
0;04:04:58:757;-19.255367;-6.980295;
0;04:04:58:768;26.12912;5.093664;
0;04:04:58:779;2.979584;-1.8590976;
0;04:04:58:789;15.708358;1.1348516;
0;04:04:58:800;17.196354;-7.1107793;
0;04:04:58:809;13.578715;1.6436194;
0;04:04:58:820;18.60175;-4.404134;
0;04:04:58:830;14.113819;-3.5110967;
0;04:04:58:840;7.9104424;-0.92535895;
0;04:04:58:850;18.380287;-4.39336;
0;04:04:58:861;9.308656;-4.4101195;
0;04:04:58:871;14.790181;0.15562311;
0;04:04:58:881;-9.916783;-3.0765493;
0;04:04:58:892;20.879833;4.392163;
0;04:04:58:902;1.5023615;-5.282806;
0;04:04:58:913;15.218743;4.746505;
0;04:04:58:923;12.680889;-4.2544966;
0;04:04:58:934;29.534872;-1.9201498;
0;04:04:58:944;-1.9189527;-3.8953662;
0;04:04:58:955;22.780828;-1.5502456;
0;04:04:58:966;10.356119;11.013328;
0;04:04:58:976;20.914549;0.91458505;
0;04:04:58:987;0.7374141;2.243367;
0;04:04:58:997;16.699556;8.495825;
0;04:04:59:008;9.621099;5.6227827;
0;04:04:59:018;7.2304893;-4.237737;
0;04:04:59:028;7.368156;3.4452562;
0;04:04:59:039;-0.12808979;-1.328782;
0;04:04:59:050;13.302185;0.8499416;
0;04:04:59:061;3.8067808;6.7253127;
0;04:04:59:072;-2.433706;11.727997;
0;04:04:59:082;7.029376;11.476605;
0;04:04:59:092;-0.6404489;-1.460463;
0;04:04:59:102;-0.58897364;2.2780828;
0;04:04:59:113;10.109517;-10.024523;
0;04:04:59:122;-4.414908;2.2278047;
0;04:04:59:133;6.2464724;4.473566;
0;04:04:59:143;-7.2723875;-4.56694;
0;04:04:59:153;-2.337938;1.0271125;
0;04:04:59:164;-5.485116;6.8773446;
0;04:04:59:174;4.8614264;0.088585466;
0;04:04:59:184;4.224569;9.016563;
0;04:04:59:195;-2.4612393;9.5971575;
0;04:04:59:206;-2.8443117;7.3897038;
0;04:04:59:216;3.867833;3.3901896;
0;04:04:59:227;-9.015367;8.656237;
0;04:04:59:237;-6.7504516;6.6882024;
0;04:04:59:248;-12.143391;-3.311181;
0;04:04:59:258;-3.537433;4.4903255;
0;04:04:59:268;8.86932;-0.2908955;
0;04:04:59:279;-3.2369606;0.8523358;
0;04:04:59:289;14.274231;3.0609868;
0;04:04:59:299;-3.1148565;6.2823853;
0;04:04:59:310;-3.430891;1.555034;
0;04:04:59:320;2.5019407;6.9527617;
0;04:04:59:330;-6.781576;1.5346833;
0;04:04:59:341;-7.691373;4.4125137;
0;04:04:59:352;0.51116204;1.3587095;
0;04:04:59:363;-1.4808137;1.9093759;
0;04:04:59:373;8.248025;5.590461;
0;04:04:59:384;0.6691794;0.7110779;
0;04:04:59:394;-1.2042835;2.920926;
0;04:04:59:404;-6.6522894;1.2210429;
0;04:04:59:415;0.2741361;7.0569096;
0;04:04:59:426;0.9959879;4.722563;
0;04:04:59:437;7.845799;1.1121067;
0;04:04:59:447;-7.345411;1.0893618;
0;04:04:59:457;4.582502;1.6950948;
0;04:04:59:468;-4.96318;2.0099323;
0;04:04:59:478;-10.921151;1.4856021;
0;04:04:59:489;-3.6966474;-0.30645782;
0;04:04:59:500;-1.8926164;6.0046577;
0;04:04:59:511;14.185645;5.876568;
0;04:04:59:522;-8.086416;-1.483208;
0;04:04:59:533;5.6227827;5.645528;
0;04:04:59:542;-2.397793;7.041347;
0;04:04:59:552;0.50996494;2.861071;
0;04:04:59:562;8.397662;3.8630445;
0;04:04:59:573;6.835446;3.1914709;
0;04:04:59:584;4.5537715;2.360683;
0;04:04:59:595;0.20470424;0.5255273;
0;04:04:59:605;4.307169;11.906365;
0;04:04:59:616;6.649895;-3.8738184;
0;04:04:59:627;-3.6595373;5.0158525;
0;04:04:59:638;3.9671922;0.5722142;
0;04:04:59:649;7.088034;3.927688;
0;04:04:59:659;9.211691;1.8602947;
0;04:04:59:669;0.5267244;1.4161704;
0;04:04:59:680;7.035362;5.1200004;
0;04:04:59:690;2.9005754;4.892551;
0;04:04:59:700;6.5361705;3.6236243;
0;04:04:59:711;2.3930047;-2.0003555;
0;04:04:59:721;-1.5705963;4.7429137;
0;04:04:59:732;1.0426749;-0.89782566;
0;04:04:59:742;-2.8311436;1.388637;
0;04:04:59:752;3.3566709;2.3116016;
0;04:04:59:763;-0.3854665;-1.1899183;
0;04:04:59:773;0.5590461;-1.2844892;
0;04:04:59:784;9.485827;1.863886;
0;04:04:59:794;4.2916064;1.3862427;
0;04:04:59:805;-2.396596;0.8714894;
0;04:04:59:815;7.4711065;4.5621514;
0;04:04:59:826;9.636662;2.6048915;
0;04:04:59:837;9.004593;5.076905;
0;04:04:59:848;0.39983168;3.4201171;
0;04:04:59:858;8.291121;-2.043451;
0;04:04:59:869;5.1547165;1.7369933;
0;04:04:59:879;4.88896;-0.51235914;
0;04:04:59:890;12.0248785;6.069301;
0;04:04:59:900;-4.5322237;-5.9244523;
0;04:04:59:911;9.744401;2.980781;
0;04:04:59:922;-3.289633;-0.051475335;
0;04:04:59:932;1.1444284;3.70383;
0;04:04:59:943;4.951209;0.58897364;
0;04:04:59:953;4.939238;-1.6364368;
0;04:04:59:964;4.507085;2.9939492;
0;04:04:59:975;7.8709383;-1.151611;
0;04:04:59:986;7.1969705;1.4891934;
0;04:04:59:995;-0.15562311;-2.9233203;
0;04:05:00:006;10.514136;3.3506854;
0;04:05:00:015;3.2130187;-3.5745432;
0;04:05:00:026;2.0219033;-0.16639702;
0;04:05:00:039;3.5805287;-3.442862;
0;04:05:00:050;-1.1480197;1.2138603;
0;04:05:00:060;3.2441432;-2.1380222;
0;04:05:00:070;9.046491;-0.51834464;
0;04:05:00:081;5.1104236;-0.7110779;
0;04:05:00:091;-2.421735;-2.9125464;
0;04:05:00:102;-1.5861586;-1.2366052;
0;04:05:00:112;-2.7269957;1.9261353;
0;04:05:00:122;-2.5115175;1.376666;
0;04:05:00:132;2.1906946;-4.009091;
0;04:05:00:143;-6.5218053;-5.8502316;
0;04:05:00:152;-4.938041;6.3326635;
0;04:05:00:162;2.942474;-0.2705448;
0;04:05:00:172;-7.831434;-1.6915035;
0;04:05:00:182;-1.5634137;0.80924016;
0;04:05:00:192;-3.6966474;-3.8127663;
0;04:05:00:202;-16.679207;-1.0079589;
0;04:05:00:212;-5.9148755;-3.855862;
0;04:05:00:222;-6.5840545;-5.305551;
0;04:05:00:232;-14.027628;-0.19871874;
0;04:05:00:243;-8.106767;-6.96593;
0;04:05:00:254;-7.860164;0.4177882;
0;04:05:00:264;-3.9504328;-0.7793127;
0;04:05:00:274;3.0178912;-3.2429461;
0;04:05:00:284;-8.02297;-1.0606314;
0;04:05:00:294;-2.6408045;0.676362;
0;04:05:00:305;-17.665617;-10.357317;
0;04:05:00:315;0.8714894;6.293159;
0;04:05:00:326;-10.593145;-4.2054152;
0;04:05:00:335;-2.3930047;-3.7241807;
0;04:05:00:346;-5.853823;-0.82121116;
0;04:05:00:357;-12.083536;5.357026;
0;04:05:00:368;-14.620193;-2.834735;
0;04:05:00:379;-13.04002;-0.80445176;
0;04:05:00:390;-12.762292;-4.7141833;
0;04:05:00:401;-7.776367;-3.989937;
0;04:05:00:412;-8.161834;-0.8774749;
0;04:05:00:423;-9.589975;-5.139154;
0;04:05:00:433;-3.4380736;3.9935284;
0;04:05:00:443;-13.184869;0.2621651;
0;04:05:00:454;-8.623915;2.4624364;
0;04:05:00:465;-11.7543335;-2.7569232;
0;04:05:00:475;-15.318103;-2.2062569;
0;04:05:00:486;-12.926295;-1.2916719;
0;04:05:00:496;-3.6535518;2.3774424;
0;04:05:00:506;-10.560823;6.355408;
0;04:05:00:516;-11.488577;-9.463082;
0;04:05:00:526;0.533907;-2.2972364;
0;04:05:00:537;-4.830302;0.94810385;
0;04:05:00:548;-8.018182;-3.2094274;
0;04:05:00:558;-9.126697;1.401805;
0;04:05:00:568;-7.583634;-1.7908629;
0;04:05:00:578;-7.763199;-7.123947;
0;04:05:00:588;-0.108936176;-1.9357121;
0;04:05:00:598;-13.951014;1.5586253;
0;04:05:00:608;-0.89543146;0.581791;
0;04:05:00:618;-17.77216;-1.4652514;
0;04:05:00:628;-5.0134583;1.2042835;
0;04:05:00:639;0.12449849;-0.107739076;
0;04:05:00:649;-11.469423;6.975507;
0;04:05:00:659;-6.609194;2.4157495;
0;04:05:00:669;-7.157466;0.23942018;
0;04:05:00:679;-8.644265;7.252037;
0;04:05:00:690;-5.7149596;10.576386;
0;04:05:00:701;2.9125464;8.572439;
0;04:05:00:711;-9.568427;0.18555063;
0;04:05:00:722;-15.111004;2.1942859;
0;04:05:00:732;-4.080917;7.001843;
0;04:05:00:743;-8.6095495;14.300567;
0;04:05:00:754;-4.1515455;1.6484078;
0;04:05:00:764;-2.397793;8.814254;
0;04:05:00:775;-8.773552;6.7863646;
0;04:05:00:786;-10.720038;-0.16879122;
0;04:05:00:797;-8.701726;0.3890578;
0;04:05:00:807;4.0880995;5.8634;
0;04:05:00:818;-4.606444;8.828619;
0;04:05:00:828;-3.478775;-2.1619642;
0;04:05:00:838;13.350069;7.2340803;
0;04:05:00:848;0.40821138;-3.6092591;
0;04:05:00:859;3.9576154;1.520318;
0;04:05:00:870;-4.7788267;-1.6699557;
0;04:05:00:881;-0.61650693;-0.427365;
0;04:05:00:892;1.543063;7.8326306;
0;04:05:00:903;-7.872135;6.1243677;
0;04:05:00:914;-9.947908;3.9719806;
0;04:05:00:925;2.1631613;4.9200845;
0;04:05:00:935;-6.254852;-0.2861071;
0;04:05:00:946;4.1060557;3.799598;
0;04:05:00:957;-8.12233;-4.072537;
0;04:05:00:967;0.35194764;10.423157;
0;04:05:00:978;-5.6898203;1.412579;
0;04:05:00:988;-1.9656396;-0.25977087;
0;04:05:00:999;0.4237737;2.7353754;
0;04:05:01:010;4.9799395;11.391612;
0;04:05:01:020;-2.6922798;5.4444146;
0;04:05:01:031;-12.157756;-1.6280571;
0;04:05:01:041;-2.802413;5.33069;
0;04:05:01:052;-12.000936;-2.5701754;
0;04:05:01:062;-2.2732944;7.5094137;
0;04:05:01:073;3.6140475;-0.025139118;
0;04:05:01:083;-8.605958;-2.220622;
0;04:05:01:093;-1.8327614;7.067683;
0;04:05:01:104;2.730587;5.877765;
0;04:05:01:115;-3.596091;-2.4372973;
0;04:05:01:125;-0.18555063;1.7932571;
0;04:05:01:136;-3.2680852;2.6420016;
0;04:05:01:146;-1.3826514;8.622718;
0;04:05:01:157;3.063381;7.277176;
0;04:05:01:168;-5.485116;0.24899697;
0;04:05:01:178;-5.683835;0.9864111;
0;04:05:01:188;-0.6548142;-2.1655555;
0;04:05:01:198;-1.70946;2.2637177;
0;04:05:01:209;-7.180211;1.7549498;
0;04:05:01:220;-6.7468605;-0.8523358;
0;04:05:01:230;-1.127669;7.2604165;
0;04:05:01:240;-2.3630772;-0.08379706;
0;04:05:01:250;-9.938332;4.865018;
0;04:05:01:261;-2.3403323;3.8139634;
0;04:05:01:270;-3.0873232;-4.2544966;
0;04:05:01:281;-2.2349873;1.8219875;
0;04:05:01:291;-0.59974754;8.0924015;
0;04:05:01:301;1.3802572;5.3235073;
0;04:05:01:311;7.231686;9.673772;
0;04:05:01:322;5.74369;8.010999;
0;04:05:01:332;-6.5589156;1.3634979;
0;04:05:01:342;-3.0095115;4.0533834;
0;04:05:01:352;2.3535004;7.0581064;
0;04:05:01:362;-5.5162406;0.11372458;
0;04:05:01:372;3.9444473;3.9743748;
0;04:05:01:383;-10.565612;-4.4556093;
0;04:05:01:394;-1.0163386;0.44651863;
0;04:05:01:403;-1.7357962;-6.117185;
0;04:05:01:414;5.861006;6.967127;
0;04:05:01:425;-6.88333;-1.9895816;
0;04:05:01:435;-2.778471;5.8203044;
0;04:05:01:445;5.315128;6.0980315;
0;04:05:01:455;-5.518635;3.904943;
0;04:05:01:465;-12.442666;-0.92057055;
0;04:05:01:476;9.009381;1.8614918;
0;04:05:01:486;-3.2501287;-6.9707184;
0;04:05:01:497;-3.0142999;-1.0378864;
0;04:05:01:507;7.038953;1.3204023;
0;04:05:01:518;-0.93852705;6.8330517;
0;04:05:01:528;1.174356;0.46567222;
0;04:05:01:538;2.4791958;9.351752;
0;04:05:01:548;-2.9257145;4.2760444;
0;04:05:01:559;12.406754;3.833117;
0;04:05:01:570;-7.097611;-5.8119245;
0;04:05:01:581;0.35075054;-1.3204023;
0;04:05:01:591;-1.9045875;0.5231331;
0;04:05:01:601;-2.6743233;2.6886885;
0;04:05:01:612;-7.0605006;-8.817844;
0;04:05:01:622;-1.0857705;5.020641;
0;04:05:01:633;-5.74369;-5.3558292;
0;04:05:01:643;3.277662;1.7741034;
0;04:05:01:654;-0.91458505;-2.2996306;
0;04:05:01:665;6.963536;1.6723499;
0;04:05:01:675;-4.7536874;2.0566192;
0;04:05:01:686;2.0482395;1.5023615;
0;04:05:01:695;2.9149406;2.2146366;
0;04:05:01:706;2.5809495;1.8387469;
0;04:05:01:718;-3.1387985;3.7122097;
0;04:05:01:729;2.1212628;3.9372647;
0;04:05:01:740;1.8650831;-2.4528596;
0;04:05:01:751;13.289017;4.996699;
0;04:05:01:761;3.0346506;0.06584055;
0;04:05:01:772;13.128605;4.3837833;
0;04:05:01:783;2.6503813;-2.658761;
0;04:05:01:794;0.009576807;-3.4727895;
0;04:05:01:805;0.6943185;-4.380192;
0;04:05:01:815;0.08619126;-0.9576807;
0;04:05:01:825;0.7649474;1.9285295;
0;04:05:01:836;2.1021092;5.9783216;
0;04:05:01:847;-1.0199299;2.645593;
0;04:05:01:858;2.552219;9.524135;
0;04:05:01:869;3.1878796;-5.374983;
0;04:05:01:880;-4.8937483;-4.3993454;
0;04:05:01:890;-1.1468226;7.7572136;
0;04:05:01:901;-8.042124;-3.7972038;
0;04:05:01:912;0.59615624;1.7046716;
0;04:05:01:922;-8.283937;0.5614403;
0;04:05:01:933;-5.035006;1.3611037;
0;04:05:01:944;1.9620483;4.248511;
0;04:05:01:954;-2.0326772;-4.3478703;
0;04:05:01:965;5.451597;0.6967127;
0;04:05:01:976;-0.31124622;6.634333;
0;04:05:01:987;-1.2138603;1.2725182;
0;04:05:01:997;6.8318543;6.4128695;
0;04:05:02:008;5.9783216;-5.9400144;
0;04:05:02:018;-1.8579005;-3.2704794;
0;04:05:02:028;3.1495724;3.4284968;
0;04:05:02:039;-2.2900538;-1.270124;
0;04:05:02:050;5.357026;7.8529816;
0;04:05:02:060;-2.4648306;2.5605986;
0;04:05:02:071;-4.0043025;-0.60214174;
0;04:05:02:081;1.7058687;6.455965;
0;04:05:02:092;-4.131195;3.4919431;
0;04:05:02:103;4.4304705;1.2174516;
0;04:05:02:113;-4.9224787;-3.6044707;
0;04:05:02:123;-3.2740707;-4.4807487;
0;04:05:02:134;-5.4408236;-1.0977415;
0;04:05:02:144;2.0386627;6.343437;
0;04:05:02:154;-5.955577;-2.0410569;
0;04:05:02:165;5.494693;10.693702;
0;04:05:02:175;-1.7010803;-1.6639702;
0;04:05:02:185;-2.6072857;6.0585275;
0;04:05:02:196;-5.777209;1.2318168;
0;04:05:02:207;8.115147;5.9064956;
0;04:05:02:216;-1.9057846;-4.607641;
0;04:05:02:227;-1.2641385;-3.774459;
0;04:05:02:237;3.7960067;0.31244332;
0;04:05:02:248;0.878672;3.2130187;
0;04:05:02:258;-0.23223756;1.5358804;
0;04:05:02:269;-2.2529438;3.7337575;
0;04:05:02:279;4.8518496;1.982399;
0;04:05:02:290;-3.9205053;-2.778471;
0;04:05:02:300;-2.585738;-1.4377182;
0;04:05:02:310;-0.23702596;1.4891934;
0;04:05:02:321;2.4384944;-6.2285156;
0;04:05:02:331;-1.6567876;-6.5385647;
0;04:05:02:341;-9.405622;6.8869214;
0;04:05:02:351;-2.1859062;7.4507556;
0;04:05:02:362;-6.612785;-6.2883706;
0;04:05:02:372;0.58777654;8.22528;
0;04:05:02:382;-0.2837129;4.1096473;
0;04:05:02:393;3.1495724;-1.543063;
0;04:05:02:404;-9.143456;-2.019509;
0;04:05:02:415;5.8634;0.17956513;
0;04:05:02:425;2.043451;0.51714754;
0;04:05:02:436;-5.8442464;4.63278;
0;04:05:02:447;-5.020641;-1.8255788;
0;04:05:02:457;-1.4269443;4.1036615;
0;04:05:02:467;1.6639702;3.6272156;
0;04:05:02:478;3.3530796;-0.1328782;
0;04:05:02:489;-3.5865142;-1.0426749;
0;04:05:02:499;1.638831;0.19393034;
0;04:05:02:510;0.5722142;2.042254;
0;04:05:02:520;1.1049241;-7.690176;
0;04:05:02:531;-7.843405;0.092176765;
0;04:05:02:542;4.0162735;-4.289212;
0;04:05:02:553;-1.6436194;0.31483752;
0;04:05:02:563;7.097611;3.5098996;
0;04:05:02:574;-4.712986;7.499837;
0;04:05:02:584;2.8083985;4.435259;
0;04:05:02:595;-2.9364884;2.9376855;
0;04:05:02:605;0.59376204;5.3558292;
0;04:05:02:615;3.1112652;4.1120415;
0;04:05:02:626;2.043451;-0.17956513;
0;04:05:02:637;2.4971523;0.47046062;
0;04:05:02:648;-0.9528923;-8.7951;
0;04:05:02:658;-0.89184016;0.48482585;
0;04:05:02:668;2.8179753;6.302736;
0;04:05:02:678;4.297592;1.021127;
0;04:05:02:689;-2.2529438;-7.4842744;
0;04:05:02:700;-10.901998;-1.1994951;
0;04:05:02:710;-6.5744777;-3.8510735;
0;04:05:02:721;-2.5773582;3.8786068;
0;04:05:02:731;11.438298;9.751583;
0;04:05:02:741;0.90620536;3.5218706;
0;04:05:02:752;0.79966336;-1.0067618;
0;04:05:02:763;-5.675455;0.31364042;
0;04:05:02:773;6.1387334;1.2533646;
0;04:05:02:784;-9.774328;6.1159883;
0;04:05:02:795;-4.6830587;-1.5406688;
0;04:05:02:805;-7.076063;10.492589;
0;04:05:02:815;16.102203;-1.388637;
0;04:05:02:826;9.908403;-2.7222073;
0;04:05:02:836;-0.1412579;-2.1918917;
0;04:05:02:847;2.304419;-3.3734303;
0;04:05:02:857;-2.8694508;-4.674679;
0;04:05:02:868;15.502456;-4.8099513;
0;04:05:02:879;0.05626374;-3.6176388;
0;04:05:02:890;-4.8422728;-0.5279215;
0;04:05:02:900;-13.561955;1.9835961;
0;04:05:02:910;-3.371036;-2.1404164;
0;04:05:02:920;4.96318;1.8112136;
0;04:05:02:931;4.1455603;-5.4025164;
0;04:05:02:941;5.3594203;-2.1164744;
0;04:05:02:951;0.03232172;-6.1985884;
0;04:05:02:962;-4.679467;-1.1264719;
0;04:05:02:973;-7.0904284;-4.9943047;
0;04:05:02:983;-0.073023155;1.6723499;
0;04:05:02:994;-0.020350715;1.234211;
0;04:05:03:004;-0.62847793;4.8398786;
0;04:05:03:014;-5.0002904;2.9747956;
0;04:05:03:025;0.81402856;-2.4708161;
0;04:05:03:035;3.228581;-4.256891;
0;04:05:03:046;2.6551697;-4.3598413;
0;04:05:03:056;7.1706343;-2.2098482;
0;04:05:03:067;-4.232949;-1.8004397;
0;04:05:03:077;-6.2752028;10.752359;
0;04:05:03:087;-1.6950948;-1.8866309;
0;04:05:03:098;4.6255975;-1.5622166;
0;04:05:03:108;0.50278234;-3.1866825;
0;04:05:03:119;-8.717288;-3.6379895;
0;04:05:03:130;-1.8567034;-4.2185836;
0;04:05:03:140;-5.919664;-2.1332338;
0;04:05:03:150;-6.6666546;-3.855862;
0;04:05:03:160;0.7326257;-7.2987237;
0;04:05:03:171;-6.646304;-3.0250738;
0;04:05:03:181;-12.691663;0.3878607;
0;04:05:03:191;-5.657499;-1.6124948;
0;04:05:03:202;-10.522516;-1.2641385;
0;04:05:03:212;-13.490129;-3.0573955;
0;04:05:03:223;-15.132552;-2.4073699;
0;04:05:03:233;-18.513165;1.7968484;
0;04:05:03:243;-6.6391215;-3.3722332;
0;04:05:03:254;-3.4584243;0.6584055;
0;04:05:03:265;-15.286978;-3.58412;
0;04:05:03:275;3.0573955;-0.90859956;
0;04:05:03:285;-14.709975;-8.402451;
0;04:05:03:296;-17.44535;-0.06823475;
0;04:05:03:306;-9.774328;-3.0430303;
0;04:05:03:316;-2.1200657;-2.9999347;
0;04:05:03:326;-14.95179;-4.751293;
0;04:05:03:336;-9.757569;-3.762488;
0;04:05:03:346;-5.9292407;2.9101522;
0;04:05:03:356;-7.502231;1.5717934;
0;04:05:03:367;-21.455639;-4.9883194;
0;04:05:03:378;-13.791799;-1.2617443;
0;04:05:03:388;-10.016143;2.4265234;
0;04:05:03:398;-6.7947445;-4.4244847;
0;04:05:03:408;5.171476;2.232593;
0;04:05:03:418;-10.721235;0.044292733;
0;04:05:03:429;-11.793838;-8.244433;
0;04:05:03:440;-12.25113;2.421735;
0;04:05:03:451;1.3251907;6.503849;
0;04:05:03:461;-7.704541;-5.9926867;
0;04:05:03:471;-7.433996;-1.9859903;
0;04:05:03:482;-24.289177;-0.7170634;
0;04:05:03:492;-24.580072;-9.020155;
0;04:05:03:503;-10.906786;-7.526173;
0;04:05:03:513;-0.46686932;1.1587936;
0;04:05:03:523;-22.385786;-5.957971;
0;04:05:03:534;1.1851299;2.3918076;
0;04:05:03:545;-14.579492;3.4320881;
0;04:05:03:556;2.100912;-5.315128;
0;04:05:03:567;-11.812991;-0.5279215;
0;04:05:03:578;-7.6710224;9.734824;
0;04:05:03:588;-5.12838;-6.039374;
0;04:05:03:598;-23.894133;0.35793316;
0;04:05:03:609;-6.465542;0.5686229;
0;04:05:03:619;-6.683414;-6.2261214;
0;04:05:03:630;-9.856929;7.9870567;
0;04:05:03:641;-11.839328;-7.627927;
0;04:05:03:652;-1.4305356;10.243592;
0;04:05:03:662;-5.671864;-3.702633;
0;04:05:03:672;-9.331401;2.896984;
0;04:05:03:683;3.6140475;3.6739025;
0;04:05:03:693;6.578069;2.48159;
0;04:05:03:704;-21.088129;9.463082;
0;04:05:03:714;-8.1642275;-7.855376;
0;04:05:03:725;-18.98602;2.9951463;
0;04:05:03:735;-2.6922798;2.5761611;
0;04:05:03:745;-9.600749;-0.7541735;
0;04:05:03:756;-12.606669;-2.777274;
0;04:05:03:767;-12.717999;5.291186;
0;04:05:03:778;-13.054385;1.6460136;
0;04:05:03:788;-10.490194;-3.9025488;
0;04:05:03:799;-7.192182;7.6147585;
0;04:05:03:809;-12.791022;0.5422867;
0;04:05:03:820;-3.6978445;1.043872;
0;04:05:03:831;-2.5366566;5.639542;
0;04:05:03:841;-11.936293;-0.14844051;
0;04:05:03:852;-11.232397;-0.7529764;
0;04:05:03:863;-11.63582;0.7170634;
0;04:05:03:873;-2.7042508;2.31639;
0;04:05:03:884;-2.3391352;3.83192;
0;04:05:03:894;-5.614403;-0.34237084;
0;04:05:03:905;-4.4520183;4.256891;
0;04:05:03:915;-7.7667904;0.8283938;
0;04:05:03:926;-5.8921304;-0.8367735;
0;04:05:03:935;-3.6296098;-0.34476504;
0;04:05:03:946;3.417723;-4.122815;
0;04:05:03:957;1.958457;-3.4751837;
0;04:05:03:968;-0.641646;3.7361517;
0;04:05:03:978;-3.6523547;7.583634;
0;04:05:03:989;-3.5865142;-0.7469909;
0;04:05:03:999;0.91338795;7.5345526;
0;04:05:04:010;1.4329298;-1.2078748;
0;04:05:04:020;0.08379706;-0.9552865;
0;04:05:04:031;0.39983168;-5.9807158;
0;04:05:04:041;-3.3518825;0.31244332;
0;04:05:04:052;-5.409699;6.203377;
0;04:05:04:063;-1.0594343;0.88944596;
0;04:05:04:073;1.7537527;7.410054;
0;04:05:04:083;7.2951326;2.2960393;
0;04:05:04:094;1.6639702;-5.2840033;
0;04:05:04:104;-8.324639;-1.4796166;
0;04:05:04:114;-7.243657;-0.20949265;
0;04:05:04:125;1.9524715;4.9200845;
0;04:05:04:135;-0.4321534;0.9792285;
0;04:05:04:145;1.7764976;3.762488;
0;04:05:04:156;3.0334535;4.0282445;
0;04:05:04:166;-2.6671407;-5.8226986;
0;04:05:04:177;11.03727;1.033098;
0;04:05:04:187;-4.674679;-0.80325466;
0;04:05:04:197;-12.794614;-1.3611037;
0;04:05:04:208;2.2254105;5.837064;
0;04:05:04:218;-1.8447324;-0.34356794;
0;04:05:04:228;-0.6775591;2.44448;
0;04:05:04:238;1.5873557;2.3654714;
0;04:05:04:248;-5.246893;-4.4843397;
0;04:05:04:258;-3.3195608;0.21068975;
0;04:05:04:268;1.0726024;1.9500773;
0;04:05:04:278;3.3135753;7.120356;
0;04:05:04:288;-2.4827871;1.4305356;
0;04:05:04:298;-3.9085343;2.018312;
0;04:05:04:308;-4.973954;2.0410569;
0;04:05:04:318;-3.6499605;-3.7852328;
0;04:05:04:328;-12.594698;-2.3295584;
0;04:05:04:338;-1.6484078;2.4756045;
0;04:05:04:348;8.983045;-1.0893618;
0;04:05:04:358;-6.31351;-4.722563;
0;04:05:04:368;7.7320743;4.6938324;
0;04:05:04:378;-9.611523;12.688072;
0;04:05:04:389;-5.6060233;2.882619;
0;04:05:04:399;5.0541596;3.1268275;
0;04:05:04:410;7.183802;3.3123782;
0;04:05:04:420;-7.2460513;-3.1950622;
0;04:05:04:430;0.89064306;0.7110779;
0;04:05:04:440;0.12689269;-0.1448492;
0;04:05:04:450;-0.439336;4.911705;
0;04:05:04:460;-12.87482;-4.547786;
0;04:05:04:470;0.110133275;5.0266266;
0;04:05:04:481;4.674679;-0.30885202;
0;04:05:04:491;0.36990416;-3.6403837;
0;04:05:04:501;6.8773446;2.48159;
0;04:05:04:511;-10.20289;-7.668628;
0;04:05:04:521;-8.589199;1.3120226;
0;04:05:04:531;-6.0202203;2.3187842;
0;04:05:04:542;-11.613075;0.11611878;
0;04:05:04:551;2.7629087;3.2620997;
0;04:05:04:561;-10.5704;3.2668881;
0;04:05:04:571;-9.0237465;1.3922282;
0;04:05:04:581;-3.05141;2.9484594;
0;04:05:04:591;1.7884687;-0.91099375;
0;04:05:04:601;-8.040926;-2.256535;
0;04:05:04:612;-10.988189;0.47764325;
0;04:05:04:622;-4.345476;4.6818614;
0;04:05:04:633;-1.8806454;-2.2158337;
0;04:05:04:643;2.882619;3.4859576;
0;04:05:04:653;-8.042124;3.1196449;
0;04:05:04:663;1.3060371;-1.4293385;
0;04:05:04:674;-3.7014358;2.5031378;
0;04:05:04:684;9.210494;-1.7405846;
0;04:05:04:695;-0.7505822;-8.1642275;
0;04:05:04:705;6.5146227;-8.457518;
0;04:05:04:716;-18.521544;1.5813702;
0;04:05:04:727;21.456835;6.149507;
0;04:05:04:738;-5.98311;-2.0578163;
0;04:05:04:747;-9.471462;3.608062;
0;04:05:04:757;-14.549563;7.323863;
0;04:05:04:769;3.335123;-3.7948096;
0;04:05:04:780;1.685518;-4.3622355;
0;04:05:04:789;-7.856573;1.2773066;
0;04:05:04:799;6.5816603;-4.7644615;
0;04:05:04:809;-3.0238767;4.9344497;
0;04:05:04:820;1.1659763;5.626374;
0;04:05:04:829;-6.393716;1.0941502;
0;04:05:04:840;-4.619612;2.0602105;
0;04:05:04:850;-1.7106571;2.3834279;
0;04:05:04:860;-6.053739;-3.9109285;
0;04:05:04:871;6.2165446;-4.606444;
0;04:05:04:882;3.2908301;-0.78050977;
0;04:05:04:892;-10.448297;2.48159;
0;04:05:04:902;2.1691468;4.654328;
0;04:05:04:912;-4.935647;-0.82360536;
0;04:05:04:922;0.9540894;-0.47644615;
0;04:05:04:933;12.115858;1.3192052;
0;04:05:04:943;-5.8119245;-2.349909;
0;04:05:04:954;1.7106571;7.0305734;
0;04:05:04:964;-1.2030864;-1.4053963;
0;04:05:04:974;3.7600937;3.976769;
0;04:05:04:984;4.547786;3.3566709;
0;04:05:04:994;-9.048885;-1.0522517;
0;04:05:05:004;-0.23582886;0.81283146;
0;04:05:05:014;-6.4008985;-3.0573955;
0;04:05:05:024;-1.5837644;3.738546;
0;04:05:05:034;-2.6791117;1.7130513;
0;04:05:05:044;8.295909;1.103727;
0;04:05:05:055;0.23104046;-3.040636;
0;04:05:05:064;-3.7493198;4.8781857;
0;04:05:05:074;-4.8985367;-6.117185;
0;04:05:05:084;-2.4779987;0.8319851;
0;04:05:05:095;-4.084508;-2.232593;
0;04:05:05:105;4.8039656;-3.7912183;
0;04:05:05:115;-7.1526775;-3.6834793;
0;04:05:05:126;-2.5031378;10.981006;
0;04:05:05:136;4.3658266;1.9213469;
0;04:05:05:147;1.7393875;3.752911;
0;04:05:05:157;1.4520833;-3.6846764;
0;04:05:05:168;-12.060791;-3.2118216;
0;04:05:05:178;11.616667;5.7640405;
0;04:05:05:189;-12.325351;-6.7648168;
0;04:05:05:198;12.146982;5.899313;
0;04:05:05:208;2.3127987;-1.3239936;
0;04:05:05:218;-3.5206735;-7.8876977;
0;04:05:05:228;7.7189064;-5.6886234;
0;04:05:05:238;1.4903905;-6.8330517;
0;04:05:05:249;21.407755;-1.9847932;
0;04:05:05:260;-11.227609;8.942344;
0;04:05:05:270;-2.5833437;38.114494;
0;04:05:05:279;-17.609354;-23.880964;
0;04:05:05:289;1.8890251;7.69257;
0;04:05:05:300;-4.97156;7.1275387;
0;04:05:05:310;-5.7496753;1.0570401;
0;04:05:05:321;-3.4440591;-0.46088383;
0;04:05:05:331;8.310274;1.1803415;
0;04:05:05:341;10.710462;4.0677485;
0;04:05:05:351;3.9863458;-9.609129;
0;04:05:05:361;13.703214;-11.142614;
0;04:05:05:372;-0.23822308;-0.48722005;
0;04:05:05:383;-22.493525;-6.7492547;
0;04:05:05:393;2.5067291;-9.576807;
0;04:05:05:403;-8.421604;-18.2091;
0;04:05:05:414;11.581951;6.6666546;
0;04:05:05:424;5.2528787;0.7673417;
0;04:05:05:435;-1.0749966;-5.7748146;
0;04:05:05:445;13.397953;5.9184666;
0;04:05:05:455;-10.333375;-1.0366893;
0;04:05:05:466;-3.9228995;0.29807812;
0;04:05:05:476;1.0486604;2.408567;
0;04:05:05:486;-9.7958765;6.196194;
0;04:05:05:496;-1.7441759;2.7042508;
0;04:05:05:507;3.7313633;7.2472486;
0;04:05:05:517;5.899313;0.8798691;
0;04:05:05:527;7.5165963;0.59735334;
0;04:05:05:537;-6.623559;4.027047;
0;04:05:05:548;-2.9999347;0.16759412;
0;04:05:05:558;2.930503;3.288436;
0;04:05:05:568;0.077811554;-3.145981;
0;04:05:05:579;2.5558102;2.315193;
0;04:05:05:589;0.31483752;-4.9763484;
0;04:05:05:600;-4.6112323;-4.571728;
0;04:05:05:609;1.0342951;1.7238252;
0;04:05:05:620;-9.003395;-3.5182793;
0;04:05:05:630;-11.399991;-6.3566055;
0;04:05:05:640;1.8112136;-1.4915876;
0;04:05:05:650;0.5710171;-3.6631286;
0;04:05:05:660;-11.602302;-5.0002904;
0;04:05:05:670;-16.913837;3.3051953;
0;04:05:05:681;-4.1599255;-2.4229321;
0;04:05:05:691;-11.159374;-3.193865;
0;04:05:05:702;-8.785523;6.4966664;
0;04:05:05:712;-18.678364;-11.432313;
0;04:05:05:722;-2.6659436;-5.3701944;
0;04:05:05:732;-18.679562;1.5945383;
0;04:05:05:742;-3.1004913;5.145139;
0;04:05:05:753;-11.088745;-16.280571;
0;04:05:05:763;-8.825027;12.987347;
0;04:05:05:773;-3.2968156;-4.1359835;
0;04:05:05:784;7.16824;-5.070919;
0;04:05:05:794;-19.893421;-3.5326445;
0;04:05:05:804;0.08619126;7.524976;
0;04:05:05:814;-11.591528;-12.902353;
0;04:05:05:824;-17.635689;-2.0242975;
0;04:05:05:834;3.0897174;11.122264;
0;04:05:05:845;-25.098417;-11.616667;
0;04:05:05:855;6.005855;0.7769185;
0;04:05:05:865;-15.847221;3.9348705;
0;04:05:05:875;5.707777;0.29688102;
0;04:05:05:885;-12.225991;-15.862783;
0;04:05:05:895;-9.246407;-1.2282255;
0;04:05:05:905;-1.8435353;-6.59004;
0;04:05:05:915;1.5035586;-17.252617;
0;04:05:05:925;-18.892645;-3.739743;
0;04:05:05:935;0.005985504;4.050989;
0;04:05:05:945;-1.70946;-6.042965;
0;04:05:05:955;-39.17752;-6.68102;
0;04:05:05:965;1.6340426;-7.728483;
0;04:05:05:975;-29.525295;0.46686932;
0;04:05:05:985;-5.959168;-2.754529;
0;04:05:05:996;7.9726915;-3.645172;
0;04:05:06:007;-0.39743748;0.36032736;
0;04:05:06:017;4.1623197;-0.92535895;
0;04:05:06:027;-22.691046;-4.2042184;
0;04:05:06:037;-10.0029745;-6.0525417;
0;04:05:06:048;5.195418;2.5809495;
0;04:05:06:058;-4.035427;-0.91219085;
0;04:05:06:068;-15.458163;1.4089876;
0;04:05:06:078;13.135788;11.081563;
0;04:05:06:088;3.9600096;-4.1060557;
0;04:05:06:098;-8.817844;14.664485;
0;04:05:06:109;1.578976;-6.0561333;
0;04:05:06:119;-12.591106;-0.37828386;
0;04:05:06:129;-26.536135;-5.2504845;
0;04:05:06:139;-10.129868;1.2773066;
0;04:05:06:150;-9.749189;-10.134656;
0;04:05:06:160;-16.569073;-0.7374141;
0;04:05:06:170;-9.831789;-1.6998832;
0;04:05:06:181;-2.3894134;-6.9264255;
0;04:05:06:190;9.491813;-5.5138464;
0;04:05:06:201;6.7480574;-8.098388;
0;04:05:06:211;-16.760609;-6.405687;
0;04:05:06:221;-8.196549;-1.9057846;
0;04:05:06:231;-11.198878;2.7246015;
0;04:05:06:242;-17.216705;-2.505532;
0;04:05:06:252;-20.921732;-5.5150437;
0;04:05:06:263;-13.177686;10.483012;
0;04:05:06:273;7.1670427;-5.637148;
0;04:05:06:284;-22.694637;4.167108;
0;04:05:06:294;-14.55555;2.7688942;
0;04:05:06:304;-14.42746;-1.3323733;
0;04:05:06:314;-23.506271;2.5785553;
0;04:05:06:325;-17.064672;-3.9827545;
0;04:05:06:335;-12.277467;9.740809;
0;04:05:06:346;-3.1962593;6.757634;
0;04:05:06:356;-1.1647792;3.4620156;
0;04:05:06:367;-11.1174755;1.9883845;
0;04:05:06:377;-1.6077064;11.297041;
0;04:05:06:387;-14.536396;4.2580876;
0;04:05:06:397;-2.4253263;3.502717;
0;04:05:06:407;-5.5341973;7.9834657;
0;04:05:06:417;-0.10654198;11.167754;
0;04:05:06:428;-15.296555;1.3431472;
0;04:05:06:438;-18.462887;-5.8622026;
0;04:05:06:448;-6.123171;5.8226986;
0;04:05:06:458;-5.877765;2.6922798;
0;04:05:06:468;-7.789535;6.979098;
0;04:05:06:478;-1.7154455;-1.7166426;
0;04:05:06:488;12.427104;4.1575313;
0;04:05:06:498;6.851008;-1.8231846;
0;04:05:06:509;6.8330517;1.1671734;
0;04:05:06:519;-3.1866825;7.7093296;
0;04:05:06:530;-0.29568392;5.7041855;
0;04:05:06:540;7.608773;3.7828386;
0;04:05:06:551;12.253524;4.5238442;
0;04:05:06:560;2.0458453;0.58418524;
0;04:05:06:570;-0.62009823;4.0976763;
0;04:05:06:580;-6.2644286;3.1244333;
0;04:05:06:590;1.1731589;1.0905589;
0;04:05:06:601;-1.6376339;3.6008794;
0;04:05:06:611;5.412093;6.8486137;
0;04:05:06:621;-0.49919105;0.5303157;
0;04:05:06:631;4.201824;-1.9548657;
0;04:05:06:641;6.1938;0.49440265;
0;04:05:06:651;-1.6783354;3.657143;
0;04:05:06:662;3.120842;5.695806;
0;04:05:06:673;1.1587936;4.0342298;
0;04:05:06:682;8.949526;0.8678981;
0;04:05:06:692;-4.2521024;1.8890251;
0;04:05:06:702;4.9320555;1.6879122;
0;04:05:06:712;0.15083471;3.4464533;
0;04:05:06:722;-3.6978445;7.7129207;
0;04:05:06:732;7.835025;3.5877113;
0;04:05:06:743;2.2385786;-1.2389994;
0;04:05:06:753;0.05626374;5.628768;
0;04:05:06:763;8.285135;-0.5566519;
0;04:05:06:773;-5.139154;1.851915;
0;04:05:06:784;0.7505822;0.31244332;
0;04:05:06:794;-3.5745432;2.789245;
0;04:05:06:805;-4.8039656;4.5322237;
0;04:05:06:815;0.641646;0.6859388;
0;04:05:06:825;3.0825348;3.2369606;
0;04:05:06:836;1.5622166;2.4648306;
0;04:05:06:846;0.93613285;-3.2704794;
0;04:05:06:857;-1.8602947;6.279991;
0;04:05:06:867;8.440758;-3.0693667;
0;04:05:06:877;-4.414908;3.3375173;
0;04:05:06:888;7.6722193;2.6408045;
0;04:05:06:898;1.4568717;4.0940847;
0;04:05:06:909;-3.1854854;-3.620033;
0;04:05:06:919;7.2664022;11.355699;
0;04:05:06:930;1.8734628;1.2413936;
0;04:05:06:940;6.7480574;3.9695864;
0;04:05:06:951;3.916914;2.6623523;
0;04:05:06:961;3.8055837;3.8007953;
0;04:05:06:971;5.4025164;-4.369418;
0;04:05:06:981;-5.717354;-5.380968;
0;04:05:06:991;-0.49320555;-4.711789;
0;04:05:07:002;5.094861;0.81881696;
0;04:05:07:012;6.117185;-1.5777789;
0;04:05:07:022;0.46926352;4.675876;
0;04:05:07:033;10.30225;4.497508;
0;04:05:07:043;1.934515;1.887828;
0;04:05:07:054;4.6136265;3.1004913;
0;04:05:07:064;-2.528277;2.9005754;
0;04:05:07:075;9.269152;1.8662802;
0;04:05:07:085;3.9863458;-0.11252748;
0;04:05:07:096;3.1148565;-5.8143187;
0;04:05:07:107;3.0107086;-0.46806642;
0;04:05:07:116;5.7784057;-2.146402;
0;04:05:07:126;4.909311;2.8766334;
0;04:05:07:136;2.553416;-2.3463178;
0;04:05:07:146;9.925163;6.3242836;
0;04:05:07:156;4.0785227;-0.5758055;
0;04:05:07:166;0.6380547;5.161899;
0;04:05:07:177;8.678981;0.15682021;
0;04:05:07:187;-3.6607344;1.7286136;
0;04:05:07:197;-5.973533;0.961272;
0;04:05:07:208;2.883816;1.2330139;
0;04:05:07:218;1.376666;0.6500258;
0;04:05:07:228;5.201403;-0.35434186;
0;04:05:07:238;4.232949;1.8471266;
0;04:05:07:248;-3.5482068;1.9500773;
0;04:05:07:258;-5.255273;2.2768857;
0;04:05:07:269;-5.2840033;2.9652188;
0;04:05:07:278;4.1455603;0.93254155;
0;04:05:07:289;-2.2577322;2.4145525;
0;04:05:07:299;4.547786;0.9744401;
0;04:05:07:310;2.3307555;4.355053;
0;04:05:07:320;-4.4520183;0.17717093;
0;04:05:07:330;2.3511062;-1.2030864;
0;04:05:07:341;7.976283;3.0011318;
0;04:05:07:351;-5.535394;0.025139118;
0;04:05:07:362;-2.6970682;0.60693014;
0;04:05:07:372;-2.2852654;-1.8842367;
0;04:05:07:383;1.3790601;-5.872977;
0;04:05:07:394;-2.0242975;1.2904748;
0;04:05:07:405;2.0961237;-2.4839842;
0;04:05:07:415;-7.327454;0.4201824;
0;04:05:07:426;-7.8972745;0.5482722;
0;04:05:07:436;-3.2393548;-0.9995792;
0;04:05:07:446;6.4667387;1.7717092;
0;04:05:07:456;-6.269217;-0.37588966;
0;04:05:07:467;-5.185841;5.6646814;
0;04:05:07:477;5.971139;4.143166;
0;04:05:07:488;-7.1550717;2.5067291;
0;04:05:07:498;4.092888;1.3850456;
0;04:05:07:509;-2.110489;2.7030537;
0;04:05:07:519;0.830788;0.3196259;
0;04:05:07:529;-3.9516299;-4.784812;
0;04:05:07:540;-9.39365;1.423353;
0;04:05:07:550;-6.4188547;2.6372132;
0;04:05:07:561;2.5127146;2.27928;
0;04:05:07:571;-0.92296475;-3.870227;
0;04:05:07:582;1.9979613;-2.0961237;
0;04:05:07:592;1.0223241;2.7006595;
0;04:05:07:603;-5.127183;0.1364695;
0;04:05:07:614;3.6954503;4.35625;
0;04:05:07:624;4.5154643;2.3343468;
0;04:05:07:635;2.779668;1.4676456;
0;04:05:07:645;1.4975731;-5.221754;
0;04:05:07:656;3.3518825;0.5470751;
0;04:05:07:666;-4.903325;-0.08379706;
0;04:05:07:677;-0.6356605;-2.4229321;
0;04:05:07:687;-9.181764;4.8386817;
0;04:05:07:698;0.51714754;2.6168625;
0;04:05:07:708;0.29927522;1.7908629;
0;04:05:07:718;-3.264494;1.6962919;
0;04:05:07:729;-7.3442135;-2.0697873;
0;04:05:07:739;0.93852705;0.19512744;
0;04:05:07:750;7.015011;2.5809495;
0;04:05:07:760;-7.1670427;1.1540052;
0;04:05:07:771;3.0873232;0.94570965;
0;04:05:07:781;0.023942016;-5.177461;
0;04:05:07:792;2.5366566;0.36631286;
0;04:05:07:802;-4.6962266;0.015562311;
0;04:05:07:813;-0.23104046;0.8475474;
0;04:05:07:824;2.7760768;3.7469256;
0;04:05:07:835;6.7923503;-5.907693;
0;04:05:07:846;4.1276035;0.19871874;
0;04:05:07:857;2.0015526;1.2294226;
0;04:05:07:869;-7.0820484;4.653131;
0;04:05:07:879;5.7508726;3.632004;
0;04:05:07:890;7.801506;-0.48722005;
0;04:05:07:900;-3.6523547;3.7086184;
0;04:05:07:911;2.0506337;-1.7860745;
0;04:05:07:922;-0.7493851;-0.16879122;
0;04:05:07:933;-2.9891608;-1.282095;
0;04:05:07:943;2.0638018;5.518635;
0;04:05:07:953;2.7485435;5.507861;
0;04:05:07:963;39.225403;-39.2266;
0;04:05:07:974;13.691242;-18.981232;
0;04:05:07:984;-4.533421;7.229292;
0;04:05:07:994;-18.860323;-1.1204864;
0;04:05:08:005;-23.539791;38.650795;
0;04:05:08:016;-5.744887;-6.3182983;
0;04:05:08:027;18.776527;-5.864597;
0;04:05:08:038;-2.445677;8.000225;
0;04:05:08:048;6.2943563;9.124303;
0;04:05:08:059;5.073313;2.1272483;
0;04:05:08:069;12.346898;-6.18542;
0;04:05:08:079;-7.358579;-22.203827;
0;04:05:08:090;-5.6108117;-10.911574;
1;04:05:08:101;-5.6108117;-10.911574;
1;04:05:08:112;-4.8937483;16.876728;
1;04:05:08:122;-4.8937483;16.876728;
1;04:05:08:133;-4.8937483;16.876728;
1;04:05:08:144;-4.8937483;16.876728;
1;04:05:08:154;-2.6982653;5.9388175;
1;04:05:08:164;-2.6982653;5.9388175;
1;04:05:08:175;2.100912;-7.2472486;
1;04:05:08:185;2.100912;-7.2472486;
1;04:05:08:196;2.100912;-7.2472486;
1;04:05:08:206;2.100912;-7.2472486;
1;04:05:08:216;1.0079589;-4.97156;
1;04:05:08:226;1.0079589;-4.97156;
1;04:05:08:236;1.0079589;-4.97156;
1;04:05:08:247;1.0079589;-4.97156;
1;04:05:08:257;-2.2134395;5.088876;
1;04:05:08:267;1.021127;-2.7138276;
1;04:05:08:278;-6.670246;-2.5677812;
1;04:05:08:288;-3.9600096;0.4249708;
1;04:05:08:298;3.715801;-0.21787235;
1;04:05:08:309;6.7648168;-2.1823149;
1;04:05:08:319;-0.10175357;-4.2042184;
1;04:05:08:329;0.6584055;4.605247;
1;04:05:08:339;-2.055422;12.50731;
1;04:05:08:349;2.7138276;1.2258313;
1;04:05:08:359;-1.5263035;6.519411;
1;04:05:08:370;11.841722;4.859032;
1;04:05:08:381;-4.855441;-0.3890578;
1;04:05:08:392;-5.8574142;2.9472623;
1;04:05:08:403;-0.08020575;5.1678843;
1;04:05:08:413;-3.2154129;5.294777;
1;04:05:08:423;3.7433343;4.325125;
1;04:05:08:434;4.4005427;3.345897;
1;04:05:08:443;-1.0522517;1.0259154;
1;04:05:08:453;-4.06296;-2.7018566;
1;04:05:08:463;-2.1655555;-5.116409;
1;04:05:08:474;-4.687847;-4.6459484;
1;04:05:08:483;-9.472659;-2.2601264;
1;04:05:08:493;0.089782566;-1.7345991;
1;04:05:08:503;-5.923255;-4.10845;
1;04:05:08:513;2.622848;-0.2908955;
1;04:05:08:523;5.795165;2.4851813;
1;04:05:08:534;-1.9117701;-1.8567034;
1;04:05:08:544;-11.283873;0.415394;
1;04:05:08:555;-11.880029;-1.9907787;
1;04:05:08:566;-5.5461683;0.44651863;
1;04:05:08:576;3.5110967;-3.369839;
1;04:05:08:587;-5.543774;-0.4213795;
1;04:05:08:598;-2.6264393;7.678205;
1;04:05:08:609;-6.4140663;-0.60693014;
1;04:05:08:619;-6.63553;3.8774097;
1;04:05:08:629;-9.064447;2.7665;
1;04:05:08:639;-5.4312468;1.0450691;
1;04:05:08:653;-8.313866;1.7501614;
1;04:05:08:664;2.1990743;-4.1599255;
1;04:05:08:673;-2.2661119;0.36511576;
1;04:05:08:683;6.649895;1.8950106;
1;04:05:08:693;-7.917625;1.9536686;
1;04:05:08:703;3.3279405;5.4767365;
1;04:05:08:714;-9.179369;1.2174516;
1;04:05:08:724;1.6424223;5.1367598;
1;04:05:08:734;3.4931402;-1.7836803;
1;04:05:08:744;0.91219085;-0.35434186;
1;04:05:08:754;-0.8607155;0.8810662;
1;04:05:08:764;-4.1371803;-4.6662993;
1;04:05:08:774;-0.8487445;-0.59735334;
1;04:05:08:784;4.23654;9.536105;
1;04:05:08:794;-2.1045034;-2.553416;
1;04:05:08:804;0.34356794;-5.5341973;
1;04:05:08:814;-7.94037;-3.1352072;
1;04:05:08:824;-2.8275523;-1.4293385;
1;04:05:08:835;-0.32202014;2.1296425;
1;04:05:08:845;-7.5764513;-6.8605847;
1;04:05:08:859;1.697489;1.6328455;
1;04:05:08:870;-11.124659;-4.984728;
1;04:05:08:881;-10.448297;-2.4061728;
1;04:05:08:891;-7.383718;-2.4791958;
1;04:05:08:902;-4.5753193;0.260968;
1;04:05:08:912;-9.399636;-6.8127007;
1;04:05:08:923;-1.9536686;4.2413282;
1;04:05:08:933;-13.995306;-2.067393;
1;04:05:08:943;-12.088325;1.0151415;
1;04:05:08:954;-3.1292217;-4.392163;
1;04:05:08:965;-13.727156;-0.22505496;
1;04:05:08:975;-8.920795;-3.3243492;
1;04:05:08:986;-5.521029;-1.2964603;
1;04:05:08:995;-9.048885;-4.320337;
1;04:05:09:005;-10.05445;0.06943185;
1;04:05:09:016;-13.785813;-4.396951;
1;04:05:09:026;-5.693412;-3.1747115;
1;04:05:09:037;-10.006566;-2.944868;
1;04:05:09:047;-7.633912;1.1049241;
1;04:05:09:058;-8.856153;-5.0014873;
1;04:05:09:068;-12.539632;-3.0322564;
1;04:05:09:079;1.2725182;0.4441244;
1;04:05:09:090;-14.407108;-3.551798;
1;04:05:09:100;3.940856;0.49919105;
1;04:05:09:110;-17.480066;-4.519056;
1;04:05:09:120;-5.8442464;-3.4763808;
1;04:05:09:130;-14.188039;1.1791444;
1;04:05:09:141;-1.8112136;-1.5945383;
1;04:05:09:151;7.4471645;-1.9788077;
1;04:05:09:161;-7.73806;0.16280572;
1;04:05:09:172;-13.195642;-6.7265096;
1;04:05:09:182;-8.847773;1.4616601;
1;04:05:09:193;-23.368607;-4.3957543;
1;04:05:09:204;-2.3535004;2.3199813;
1;04:05:09:214;4.6698904;1.5047557;
1;04:05:09:225;-10.9834;-5.093664;
1;04:05:09:235;-9.967062;-0.24301147;
1;04:05:09:246;-19.367895;-4.5118732;
1;04:05:09:256;0.4309563;-1.2497733;
1;04:05:09:266;-20.025103;-0.15322891;
1;04:05:09:277;-15.180436;-8.378509;
1;04:05:09:288;1.3215994;-1.8602947;
1;04:05:09:297;-4.367024;-2.1643584;
1;04:05:09:307;-6.8402343;-4.3873744;
1;04:05:09:317;-2.5701754;0.17238252;
1;04:05:09:327;-9.448717;-1.3467385;
1;04:05:09:338;-1.0235212;2.3690627;
1;04:05:09:349;-10.654198;1.1647792;
1;04:05:09:359;-9.024943;-2.1212628;
1;04:05:09:370;2.0374656;6.329072;
1;04:05:09:380;-7.976283;1.0737995;
1;04:05:09:391;-4.8841715;-0.8822633;
1;04:05:09:401;-6.042965;4.331111;
1;04:05:09:411;-0.5602432;4.473566;
1;04:05:09:422;-6.655881;3.6032736;
1;04:05:09:433;3.1352072;8.309077;
1;04:05:09:444;-11.201273;5.1020436;
1;04:05:09:455;-7.678205;1.9500773;
1;04:05:09:465;-5.507861;2.6324248;
1;04:05:09:475;-6.4308257;4.235343;
1;04:05:09:486;-1.8435353;6.4272346;
1;04:05:09:497;-2.3774424;-1.745373;
1;04:05:09:508;-12.293029;3.6978445;
1;04:05:09:519;0.44771573;2.8682537;
1;04:05:09:530;4.6244006;3.7074213;
1;04:05:09:541;1.174356;-0.6871359;
1;04:05:09:551;8.942344;4.4963107;
1;04:05:09:562;2.7629087;2.1092918;
1;04:05:09:572;10.546458;8.978256;
1;04:05:09:583;4.3275194;9.504981;
1;04:05:09:593;-2.1308396;6.38773;
1;04:05:09:604;1.0043676;6.7025676;
1;04:05:09:614;-5.6156;5.151125;
1;04:05:09:624;2.244564;0.12090719;
1;04:05:09:635;1.0366893;7.055712;
1;04:05:09:646;3.1244333;-0.24301147;
1;04:05:09:656;-8.467094;-0.02633622;
1;04:05:09:667;6.491878;7.727286;
1;04:05:09:677;-10.951078;-4.879383;
1;04:05:09:687;-2.5617957;5.434838;
1;04:05:09:698;-3.6116533;4.188656;
1;04:05:09:708;-2.6539726;-2.7269957;
1;04:05:09:719;-4.425682;9.739613;
1;04:05:09:729;-11.054029;-4.607641;
1;04:05:09:739;0.52073884;3.405752;
1;04:05:09:750;-3.7840357;4.4568067;
1;04:05:09:761;-0.94690675;-1.7345991;
1;04:05:09:772;2.0219033;7.837419;
1;04:05:09:782;-8.684967;-1.508347;
1;04:05:09:793;-10.121488;-5.032612;
1;04:05:09:803;0.5758055;1.4305356;
1;04:05:09:814;-1.9967642;6.2644286;
1;04:05:09:823;-3.5673606;-2.4791958;
1;04:05:09:834;-8.110358;0.9947908;
1;04:05:09:845;-8.437167;2.60968;
1;04:05:09:855;5.0721164;3.4931402;
1;04:05:09:866;-18.96088;-5.1583076;
1;04:05:09:877;-1.4149733;8.110358;
1;04:05:09:888;0.046686932;1.2557588;
1;04:05:09:898;5.1762643;8.367735;
1;04:05:09:909;-2.2385786;3.4763808;
1;04:05:09:920;0.39264908;4.1012673;
1;04:05:09:930;-2.1499932;2.9137435;
1;04:05:09:940;0.7254431;1.1767502;
1;04:05:09:951;-1.2725182;2.0925324;
1;04:05:09:961;3.7002387;1.5298948;
1;04:05:09:972;0.17357962;-0.19991584;
1;04:05:09:982;-3.0825348;0.8798691;
1;04:05:09:992;-0.40581718;1.246182;
1;04:05:10:003;-2.6527755;2.2469583;
1;04:05:10:014;3.0466216;3.0753522;
1;04:05:10:024;4.050989;0.46926352;
1;04:05:10:035;-0.7374141;1.4377182;
1;04:05:10:046;3.5350387;1.3802572;
1;04:05:10:057;-6.691794;3.1423898;
1;04:05:10:067;1.9991584;1.0019734;
1;04:05:10:078;-2.5198972;-2.1068976;
1;04:05:10:088;4.2999864;-1.4867992;
1;04:05:10:099;-1.9033904;4.4101195;
1;04:05:10:109;5.2624555;10.638636;
1;04:05:10:119;-4.8135424;1.4532804;
1;04:05:10:130;5.758055;4.581305;
1;04:05:10:140;-1.0893618;-0.724246;
1;04:05:10:151;5.021838;5.009867;
1;04:05:10:162;2.861071;5.149928;
1;04:05:10:173;-2.2720973;5.601235;
1;04:05:10:184;-1.6603789;2.148796;
1;04:05:10:194;-1.8626889;2.2182279;
1;04:05:10:205;5.650316;2.3666685;
1;04:05:10:216;-4.238934;-7.4711065;
1;04:05:10:227;-3.6834793;-1.4053963;
1;04:05:10:238;-0.93014735;0.61650693;
1;04:05:10:249;-2.4588451;1.2270284;
1;04:05:10:260;0.9923966;2.5605986;
1;04:05:10:272;-1.5813702;4.751293;
1;04:05:10:283;6.1088057;4.4400473;
1;04:05:10:293;-5.2564697;4.7022123;
1;04:05:10:303;4.7405195;6.339846;
1;04:05:10:314;11.7268;2.1787236;
1;04:05:10:325;4.295198;-3.429694;
1;04:05:10:335;1.9919758;7.2987237;
1;04:05:10:346;7.1945763;5.056554;
1;04:05:10:356;2.3786395;-9.289502;
1;04:05:10:367;-0.8870517;2.4636335;
1;04:05:10:378;16.506824;-7.562086;
1;04:05:10:388;15.462952;-2.088941;
1;04:05:10:398;10.971429;-9.355343;
1;04:05:10:408;4.817134;-1.851915;
1;04:05:10:418;19.39902;7.2424603;
1;04:05:10:428;20.914549;-0.50757074;
1;04:05:10:438;-2.3870192;-11.294646;
1;04:05:10:449;0.50038815;12.970588;
1;04:05:10:459;0.18315643;5.7879825;
1;04:05:10:470;3.2154129;4.140772;
1;04:05:10:480;20.20826;-8.2169;
1;04:05:10:490;21.559786;-1.5861586;
1;04:05:10:501;21.906946;-5.41329;
1;04:05:10:511;33.115402;-8.455123;
1;04:05:10:521;1.685518;-7.469909;
1;04:05:10:532;39.225403;-10.298658;
1;04:05:10:543;15.778986;-20.04306;
1;04:05:10:553;11.293449;10.447099;
1;04:05:10:563;37.01795;-15.691598;
1;04:05:10:574;14.614207;-4.000711;
1;04:05:10:585;5.2385135;5.2923827;
1;04:05:10:596;0.9696517;21.167137;
1;04:05:10:606;25.661055;-8.421604;
1;04:05:10:617;24.132357;17.73026;
1;04:05:10:627;-5.2061915;-3.7660792;
1;04:05:10:637;17.894264;3.0897174;
1;04:05:10:648;-6.409278;-0.85473;
1;04:05:10:658;3.560178;1.3838485;
1;04:05:10:669;2.5151088;-1.3204023;
1;04:05:10:680;19.466057;-5.7520695;
1;04:05:10:690;10.933122;-7.848193;
1;04:05:10:701;3.347094;0.89184016;
1;04:05:10:711;6.9946604;-2.8203697;
1;04:05:10:722;5.923255;-7.771579;
1;04:05:10:733;0.62249243;-4.4208937;
1;04:05:10:744;29.236794;-8.483853;
1;04:05:10:754;12.315774;-0.23702596;
1;04:05:10:765;16.968904;-2.5725696;
1;04:05:10:775;15.85201;-3.1232362;
1;04:05:10:785;-10.480618;-7.920019;
1;04:05:10:796;5.3247046;7.8446016;
1;04:05:10:806;2.5845408;-8.495825;
1;04:05:10:817;13.378799;9.7240505;
1;04:05:10:827;16.14889;-7.8984714;
1;04:05:10:838;8.080431;0.20949265;
1;04:05:10:847;8.560468;-0.688333;
1;04:05:10:858;11.727997;-6.155493;
1;04:05:10:868;19.08418;-0.16519992;
1;04:05:10:878;10.444705;0.45729253;
1;04:05:10:889;-6.409278;0.8511387;
1;04:05:10:900;-1.7836803;-5.747281;
1;04:05:10:910;5.48751;3.7948096;
1;04:05:10:920;8.647857;-0.5279215;
1;04:05:10:931;14.025233;-3.0382419;
1;04:05:10:942;14.330494;2.706645;
1;04:05:10:952;12.344504;1.3239936;
1;04:05:10:963;14.083892;2.2002714;
1;04:05:10:973;4.146757;-0.12928689;
1;04:05:10:984;2.9903579;6.75524;
1;04:05:10:994;6.2488666;2.6671407;
1;04:05:11:004;8.887277;0.2669535;
1;04:05:11:014;-0.12330139;3.5290532;
1;04:05:11:025;0.21428105;10.0664215;
1;04:05:11:036;-2.0159178;0.78170687;
1;04:05:11:047;0.7745243;11.583148;
1;04:05:11:057;3.3626564;4.1623197;
1;04:05:11:067;6.233304;2.2014685;
1;04:05:11:077;5.258864;3.3530796;
1;04:05:11:088;2.1679497;5.0242324;
1;04:05:11:098;2.1080947;8.287529;
1;04:05:11:109;-0.5315128;2.5127146;
1;04:05:11:119;-0.29209262;6.3697734;
1;04:05:11:129;-7.0449386;-2.3654714;
1;04:05:11:139;-0.9528923;1.0474633;
1;04:05:11:150;3.3602622;1.6436194;
1;04:05:11:161;-3.4392707;4.97156;
1;04:05:11:171;4.2784386;9.425972;
1;04:05:11:182;2.232593;4.8757915;
1;04:05:11:193;-0.37349546;2.384625;
1;04:05:11:204;-4.173094;0.22744916;
1;04:05:11:214;-9.118318;0.878672;
1;04:05:11:225;0.093373865;3.6128504;
1;04:05:11:236;3.7600937;5.8226986;
1;04:05:11:247;5.0278234;9.962274;
1;04:05:11:257;5.3761797;6.113594;
1;04:05:11:267;1.6352397;3.855862;
1;04:05:11:277;4.098873;5.9783216;
1;04:05:11:288;4.024653;4.325125;
1;04:05:11:299;-4.8015714;5.2169657;
1;04:05:11:310;-3.855862;1.2665327;
1;04:05:11:320;1.6424223;5.673061;
1;04:05:11:330;4.292804;8.076839;
1;04:05:11:340;-2.2230163;-1.3634979;
1;04:05:11:351;0.557849;6.341043;
1;04:05:11:361;4.5154643;1.436521;
1;04:05:11:371;-2.8287494;-1.7274165;
1;04:05:11:381;-9.463082;3.9133227;
1;04:05:11:391;-0.94451255;2.9891608;
1;04:05:11:401;7.386112;3.2992098;
1;04:05:11:412;0.25498247;3.4715924;
1;04:05:11:423;-4.2940006;2.110489;
1;04:05:11:434;-1.2030864;4.7548847;
1;04:05:11:445;1.6160861;1.115698;
1;04:05:11:455;1.9572599;4.4663835;
1;04:05:11:466;-5.3282957;-2.2457612;
1;04:05:11:476;2.7569232;6.9024835;
1;04:05:11:487;-0.62368953;4.5262384;
1;04:05:11:498;-1.3874398;4.2197804;
1;04:05:11:508;-4.012682;1.934515;
1;04:05:11:519;-3.6894648;3.086126;
1;04:05:11:530;5.616797;-3.2704794;
1;04:05:11:540;-3.2261868;5.6227827;
1;04:05:11:551;-5.2995653;2.6839;
1;04:05:11:562;-0.18315643;6.1219735;
1;04:05:11:572;-3.620033;1.4640543;
1;04:05:11:583;-2.6970682;1.6903064;
1;04:05:11:593;-0.01316811;4.212598;
1;04:05:11:604;2.2349873;1.388637;
1;04:05:11:614;-6.242881;4.5657425;
1;04:05:11:624;-4.571728;6.597223;
1;04:05:11:635;-1.292869;4.4460325;
1;04:05:11:646;-7.255628;2.5773582;
1;04:05:11:657;6.703765;3.6379895;
1;04:05:11:668;6.703765;3.6379895;
1;04:05:11:679;-4.7058034;1.8004397;
1;04:05:11:689;-4.7058034;1.8004397;
1;04:05:11:700;-7.103596;2.9640217;
1;04:05:11:710;4.5274353;1.7824832;
1;04:05:11:720;-0.41299978;3.300407;
1;04:05:11:731;-1.7417817;1.5466543;
1;04:05:11:742;0.24779987;1.389834;
1;04:05:11:752;2.2373815;-1.3551182;
1;04:05:11:762;-2.0219033;1.6819267;
1;04:05:11:772;9.554062;3.513491;
1;04:05:11:783;7.3466077;-2.1643584;
1;04:05:11:794;7.467515;5.1882353;
1;04:05:11:805;-2.1296425;-0.90620536;
1;04:05:11:815;2.0278888;3.2333694;
1;04:05:11:825;10.79785;-2.528277;
1;04:05:11:834;3.4560301;-0.37828386;
1;04:05:11:844;7.3885064;5.827487;
1;04:05:11:854;8.330625;-2.7401638;
1;04:05:11:864;3.0214825;-1.2234371;
1;04:05:11:875;7.4112515;-0.5566519;
1;04:05:11:886;8.2037325;3.954024;
1;04:05:11:896;6.278794;-1.067814;
1;04:05:11:906;0.32680854;0.93972415;
1;04:05:11:916;3.845088;2.9484594;
1;04:05:11:926;-0.4249708;-3.3375173;
1;04:05:11:936;4.8662148;1.7250223;
1;04:05:11:947;0.7649474;4.915296;
1;04:05:11:958;7.442376;5.1559134;
1;04:05:11:969;6.206968;-4.175488;
1;04:05:11:980;9.774328;-0.3842694;
1;04:05:11:991;5.7185507;0.39145198;
1;04:05:12:001;-6.4990606;-0.48362875;
1;04:05:12:011;-0.770933;-0.25378537;
1;04:05:12:022;-1.946486;-0.22026655;
1;04:05:12:032;1.3634979;1.6196774;
1;04:05:12:042;-1.9572599;1.9524715;
1;04:05:12:052;-0.7218518;-0.79966336;
1;04:05:12:070;14.721947;2.3139958;
1;04:05:12:076;5.6539073;-8.453926;
1;04:05:12:088;2.48159;-4.736928;
1;04:05:12:098;-7.088034;-2.56419;
1;04:05:12:108;-0.090979666;17.758991;
1;04:05:12:118;5.2863975;19.507956;
1;04:05:12:128;10.911574;-0.22744916;
1;04:05:12:138;1.2186487;8.261193;
1;04:05:12:149;-4.5154643;-7.4256167;
1;04:05:12:160;-5.935226;0.37828386;
1;04:05:12:170;-1.2533646;-3.2106245;
1;04:05:12:185;-16.235083;-0.51595044;
1;04:05:12:195;0.090979666;6.8761473;
1;04:05:12:205;6.8905125;6.367379;
1;04:05:12:215;2.7222073;-2.7940333;
1;04:05:12:226;-4.6950297;0.12449849;
1;04:05:12:236;-4.8578353;1.2617443;
1;04:05:12:246;-9.084799;-0.94930094;
1;04:05:12:257;-6.4463882;3.300407;
1;04:05:12:267;3.918111;4.0797195;
1;04:05:12:277;0.7182605;-3.6619315;
1;04:05:12:288;-3.1735144;-1.4891934;
1;04:05:12:299;4.2880154;-1.6555905;
1;04:05:12:309;-2.96881;0.095768064;
1;04:05:12:319;5.979519;6.9240313;
1;04:05:12:329;-10.576386;0.30885202;
1;04:05:12:339;-2.669535;1.9895816;
1;04:05:12:349;-4.6722846;1.6208745;
1;04:05:12:359;-2.9364884;1.4796166;
1;04:05:12:369;-10.82658;1.9871874;
1;04:05:12:380;-2.9532478;-3.1783028;
1;04:05:12:391;4.453215;2.64679;
1;04:05:12:402;7.867347;-0.11851298;
1;04:05:12:413;-6.7360864;3.8522706;
1;04:05:12:423;4.4208937;10.2735195;
1;04:05:12:433;4.44723;1.1647792;
1;04:05:12:444;5.5030727;-7.513005;
1;04:05:12:454;6.5361705;-6.670246;
1;04:05:12:465;6.041768;1.2150574;
1;04:05:12:476;1.3623008;-2.4600422;
1;04:05:12:486;10.721235;2.184709;
1;04:05:12:497;5.433641;-2.336741;
1;04:05:12:508;6.0585275;5.112818;
1;04:05:12:518;-2.3092074;-4.298789;
1;04:05:12:529;0.7170634;8.724471;
1;04:05:12:540;6.7492547;6.203377;
1;04:05:12:550;2.27928;1.0498575;
1;04:05:12:561;6.9407907;-1.6915035;
1;04:05:12:571;10.204087;3.1974564;
1;04:05:12:582;11.312603;2.6013002;
1;04:05:12:591;-0.78290397;-4.0198646;
1;04:05:12:602;0.9564836;-1.6328455;
1;04:05:12:613;13.755886;-3.6343982;
1;04:05:12:623;19.821596;-0.005985504;
1;04:05:12:634;16.29733;-1.6089035;
1;04:05:12:644;7.9032598;-5.2540755;
1;04:05:12:654;0.05267244;-2.813187;
1;04:05:12:665;8.882488;2.397793;
1;04:05:12:676;10.867282;4.1575313;
1;04:05:12:687;-1.4329298;-10.208876;
1;04:05:12:698;19.64682;2.3391352;
1;04:05:12:708;-7.017405;-1.5298948;
1;04:05:12:719;13.103466;-6.6606693;
1;04:05:12:730;23.2884;6.2752028;
1;04:05:12:740;14.516045;1.4257472;
1;04:05:12:750;19.141644;-2.0326772;
1;04:05:12:761;20.329166;4.2940006;
1;04:05:12:772;1.5945383;1.2761095;
1;04:05:12:783;12.516887;4.2940006;
1;04:05:12:793;-0.130484;-12.49893;
1;04:05:12:807;8.271967;2.3786395;
1;04:05:12:817;12.308591;-2.1583729;
1;04:05:12:827;-0.9708488;-11.033679;
1;04:05:12:837;-5.9603653;5.6898203;
1;04:05:12:847;-12.497733;-4.6950297;
1;04:05:12:857;-2.5151088;-8.47308;
1;04:05:12:868;16.474503;1.9895816;
1;04:05:12:878;-8.797494;-5.0242324;
1;04:05:12:888;17.035942;-9.969456;
1;04:05:12:899;19.504364;-2.0290859;
1;04:05:12:908;13.300987;3.9396589;
1;04:05:12:919;27.888859;-9.26197;
1;04:05:12:930;2.1452048;-16.820463;
1;04:05:12:941;-18.367119;2.3570917;
1;04:05:12:951;16.717514;-14.068329;
1;04:05:12:961;-4.957195;-13.069947;
1;04:05:12:971;21.340717;0.6667852;
1;04:05:12:981;27.108349;-7.1227503;
1;04:05:12:991;15.577873;-3.879804;
1;04:05:13:001;17.90025;0.9959879;
1;04:05:13:011;20.805613;-1.1240777;
1;04:05:13:021;25.742456;-13.627796;
1;04:05:13:032;14.235924;-4.0557775;
1;04:05:13:043;-6.5110316;-0.7697359;
1;04:05:13:053;-15.000871;3.0573955;
1;04:05:13:063;-3.5853171;-7.3992805;
1;04:05:13:074;12.567164;-0.5626374;
1;04:05:13:084;18.988413;9.844957;
1;04:05:13:094;23.007082;-0.4381389;
1;04:05:13:105;33.942596;-17.533936;
1;04:05:13:115;17.775751;-1.8076223;
1;04:05:13:125;20.77329;4.1180267;
1;04:05:13:136;25.986666;-3.406949;
1;04:05:13:147;1.7657237;-3.9576154;
1;04:05:13:157;11.335348;3.2501287;
1;04:05:13:168;3.5649664;1.0187328;
1;04:05:13:178;-14.288596;-4.2521024;
1;04:05:13:194;-10.077195;-12.206838;
1;04:05:13:204;-3.3087866;-11.585542;
1;04:05:13:214;-5.133168;-4.8841715;
1;04:05:13:224;4.675876;-12.613852;
1;04:05:13:235;14.865599;-1.7657237;
1;04:05:13:246;21.916523;1.4951789;
1;04:05:13:257;16.881516;-8.292317;
1;04:05:13:268;28.845343;-2.1068976;
1;04:05:13:279;5.4922986;6.353014;
1;04:05:13:289;-21.927296;-3.3518825;
1;04:05:13:299;7.1969705;9.372103;
1;04:05:13:310;12.471396;13.591883;
1;04:05:13:320;11.857284;3.8486793;
1;04:05:13:331;3.78643;6.030994;
1;04:05:13:342;9.522937;8.003817;
1;04:05:13:352;9.02614;8.201338;
1;04:05:13:363;32.703598;-3.954024;
1;04:05:13:372;18.486828;0.08738836;
1;04:05:13:383;9.481039;3.8139634;
1;04:05:13:393;7.78355;-8.878897;
1;04:05:13:404;-5.067328;12.385205;
1;04:05:13:414;-3.7984009;-1.0450691;
1;04:05:13:425;6.5146227;-0.12689269;
1;04:05:13:436;-12.186486;-4.3981485;
1;04:05:13:447;5.876568;-7.253234;
1;04:05:13:457;7.0102224;0.34955344;
1;04:05:13:468;-4.2317514;-11.432313;
1;04:05:13:478;-2.1918917;3.180697;
1;04:05:13:489;-2.3319526;-1.4999673;
1;04:05:13:499;-0.7422025;15.030798;
1;04:05:13:510;4.036624;5.4408236;
1;04:05:13:520;1.9033904;9.054871;
1;04:05:13:531;0.62129533;8.683769;
1;04:05:13:542;4.525041;7.714118;
1;04:05:13:553;-4.000711;8.008605;
1;04:05:13:563;-5.3282957;3.465607;
1;04:05:13:574;-4.578911;-0.025139118;
1;04:05:13:584;3.465607;-1.4532804;
1;04:05:13:595;-2.1906946;1.6579847;
1;04:05:13:606;-3.3363202;0.21787235;
1;04:05:13:617;-0.40940848;4.250905;
1;04:05:13:627;4.4196963;2.801216;
1;04:05:13:638;-1.0534488;0.78888947;
1;04:05:13:648;7.5333557;5.637148;
1;04:05:13:659;-2.565387;-1.9009962;
1;04:05:13:669;1.1049241;0.24779987;
1;04:05:13:680;-2.693477;-0.17477672;
1;04:05:13:690;-2.0326772;1.1288661;
1;04:05:13:701;-0.89303726;4.787206;
1;04:05:13:711;4.2880154;3.7205894;
1;04:05:13:722;-1.9488802;2.3594859;
1;04:05:13:732;2.847903;-1.5358804;
1;04:05:13:743;-6.956353;5.1798553;
1;04:05:13:753;5.0637364;2.9520507;
1;04:05:13:764;2.861071;3.027468;
1;04:05:13:776;5.1810527;5.717354;
1;04:05:13:786;-2.9652188;2.505532;
1;04:05:13:797;4.5537715;4.301183;
1;04:05:13:807;1.2066777;2.9891608;
1;04:05:13:818;4.6279917;1.7118542;
1;04:05:13:828;-4.035427;0.79726917;
1;04:05:13:839;-2.2349873;-0.24061728;
1;04:05:13:849;3.9612067;2.0913353;
1;04:05:13:859;-6.3302693;-1.115698;
1;04:05:13:870;-2.2349873;4.1802764;
1;04:05:13:879;-5.5988407;2.6288335;
1;04:05:13:890;13.140576;-1.3275849;
1;04:05:13:900;2.9101522;1.1492168;
1;04:05:13:911;-7.475895;0.94570965;
1;04:05:13:921;-4.0282445;2.1080947;
1;04:05:13:931;1.6819267;2.8455088;
1;04:05:13:941;2.9628246;3.2860417;
1;04:05:13:951;2.4121583;6.519411;
1;04:05:13:961;0.8655039;-0.90620536;
1;04:05:13:971;-6.384139;-5.8634;
1;04:05:13:982;-1.7525556;7.4447703;
1;04:05:13:992;4.712986;-0.62368953;
1;04:05:14:003;-0.18435353;2.790442;
1;04:05:14:013;1.4736311;6.1183825;
1;04:05:14:023;4.465186;4.734534;
1;04:05:14:033;1.8543092;5.922058;
1;04:05:14:044;-1.5406688;2.48159;
1;04:05:14:055;5.5150437;2.9783869;
1;04:05:14:065;-3.8774097;-1.3742718;
1;04:05:14:076;-6.7265096;1.3251907;
1;04:05:14:087;10.532093;3.3435028;
1;04:05:14:098;-2.3894134;-4.5741224;
1;04:05:14:109;2.1416135;3.1603463;
1;04:05:14:119;1.0510546;-1.5849615;
1;04:05:14:129;-2.5366566;5.3318872;
1;04:05:14:140;9.514558;-1.3479356;
1;04:05:14:151;0.6751649;-12.449849;
1;04:05:14:161;15.472528;-6.543353;
1;04:05:14:171;-13.719973;1.6962919;
1;04:05:14:182;-6.479907;-0.06943185;
1;04:05:14:192;-15.83525;-6.7480574;
1;04:05:14:203;-1.42455;4.8374844;
1;04:05:14:213;10.54167;15.969325;
1;04:05:14:224;-3.9097314;0.9816227;
1;04:05:14:234;-0.4141969;3.1651347;
1;04:05:14:244;-19.856312;12.533646;
1;04:05:14:255;-8.003817;2.5007436;
1;04:05:14:265;0.6655881;-1.780089;
1;04:05:14:276;2.885013;6.8162923;
1;04:05:14:286;-3.7062242;-3.2704794;
1;04:05:14:296;-9.611523;0.6835446;
1;04:05:14:307;-1.282095;-9.130288;
1;04:05:14:317;10.023325;-4.947618;
1;04:05:14:327;-4.7860093;-15.273809;
1;04:05:14:338;-2.6886885;1.0714053;
1;04:05:14:349;-14.4130945;3.632004;
1;04:05:14:358;-15.849615;-1.7142484;
1;04:05:14:369;-0.81522566;1.3323733;
1;04:05:14:380;-12.735956;0.25737667;
1;04:05:14:389;-3.6595373;5.2289367;
1;04:05:14:399;0.5686229;10.1143055;
1;04:05:14:409;-2.6408045;3.9456444;
1;04:05:14:420;-1.2916719;6.0645127;
1;04:05:14:431;-9.910798;-3.016694;
1;04:05:14:442;-19.42775;-5.4527946;
1;04:05:14:453;-17.951725;-5.159505;
1;04:05:14:463;2.4983494;-3.7936125;
1;04:05:14:473;-12.312182;-2.0494366;
1;04:05:14:484;3.3638535;4.519056;
1;04:05:14:495;-9.803059;-1.4377182;
1;04:05:14:506;-1.2976574;0.59256494;
1;04:05:14:516;-6.8761473;0.48482585;
1;04:05:14:526;1.151611;0.6476316;
1;04:05:14:536;-1.9776106;4.308366;
1;04:05:14:546;0.30166942;4.602853;
1;04:05:14:556;5.4061074;0.5315128;
1;04:05:14:566;-15.440207;-10.271125;
1;04:05:14:576;-21.865047;-3.8977604;
1;04:05:14:587;-11.840525;-9.249998;
1;04:05:14:597;-11.818976;-3.2501287;
1;04:05:14:607;-7.3106947;-5.5820813;
1;04:05:14:618;-11.727997;-6.591237;
1;04:05:14:628;-0.44651863;5.9029045;
1;04:05:14:638;-11.568783;-0.24779987;
1;04:05:14:649;-10.765528;-2.018312;
1;04:05:14:660;-4.912902;2.4875755;
1;04:05:14:671;-8.567651;0.2645593;
1;04:05:14:681;-6.364985;-1.8866309;
1;04:05:14:691;-10.91756;1.4161704;
1;04:05:14:701;-22.117636;-4.050989;
1;04:05:14:712;-4.143166;-0.7194576;
1;04:05:14:722;-11.200075;-1.5095441;
1;04:05:14:733;-8.115147;-0.35553896;
1;04:05:14:743;-2.1571758;-1.7501614;
1;04:05:14:753;-8.772355;-1.0594343;
1;04:05:14:764;-4.545392;-1.8243817;
1;04:05:14:774;-12.264298;-4.7417164;
1;04:05:14:784;-15.831658;-2.8107927;
1;04:05:14:794;-2.2170308;-6.256049;
1;04:05:14:804;-6.870162;-0.94092125;
1;04:05:14:815;-10.2735195;-3.4380736;
1;04:05:14:824;-12.871228;-2.7449522;
1;04:05:14:834;-11.265916;-1.4664485;
1;04:05:14:845;-3.6858735;-0.10534488;
1;04:05:14:856;-5.189432;-2.5617957;
1;04:05:14:866;-15.022419;-1.5981296;
1;04:05:14:876;-6.3482256;0.6619968;
1;04:05:14:887;-0.5470751;-3.083732;
1;04:05:14:897;-11.0695915;-0.4165911;
1;04:05:14:908;-8.740033;-1.6172832;
1;04:05:14:918;-8.528147;0.16519992;
1;04:05:14:929;-5.2636523;-1.0690111;
1;04:05:14:939;-3.1627405;1.5095441;
1;04:05:14:949;-1.9057846;0.48123455;
1;04:05:14:960;-6.50744;-1.4939818;
1;04:05:14:970;-6.805518;-5.0481744;
1;04:05:14:981;-13.75828;0.1436521;
1;04:05:14:991;-1.2689269;-4.510676;
1;04:05:15:001;-21.387403;-11.438298;
1;04:05:15:012;-12.658144;-5.3881507;
1;04:05:15:021;-13.792996;-7.73806;
1;04:05:15:032;-2.5605986;0.08259996;
1;04:05:15:042;-13.055582;-7.3466077;
1;04:05:15:052;-4.711789;5.0876784;
1;04:05:15:063;8.948329;2.96881;
1;04:05:15:073;-10.576386;1.3479356;
1;04:05:15:083;-5.294777;2.2026656;
1;04:05:15:094;-7.66384;-1.30484;
1;04:05:15:104;-10.817003;1.9991584;
1;04:05:15:115;0.34835634;-1.9500773;
1;04:05:15:125;-18.477251;6.599617;
1;04:05:15:135;-8.985439;-2.5450363;
1;04:05:15:146;-5.804742;-0.5602432;
1;04:05:15:156;-7.144298;0.34237084;
1;04:05:15:166;-4.3646297;5.2061915;
1;04:05:15:177;-6.851008;-1.6424223;
1;04:05:15:187;-9.01417;4.7046065;
1;04:05:15:198;-12.837709;-3.4368765;
1;04:05:15:209;2.243367;2.336741;
1;04:05:15:220;0.8762778;4.5681367;
1;04:05:15:230;-7.723695;0.40222588;
1;04:05:15:241;-7.241263;-0.5374983;
1;04:05:15:251;0.7338228;-2.9616275;
1;04:05:15:262;-3.2632968;-0.15562311;
1;04:05:15:273;-6.423643;0.6871359;
1;04:05:15:284;-2.3247697;3.2381577;
1;04:05:15:295;0.7182605;3.063381;
1;04:05:15:305;-4.9703627;2.1978772;
1;04:05:15:315;-6.114791;0.02633622;
1;04:05:15:326;0.16639702;4.3263226;
1;04:05:15:336;-3.252523;-0.094570965;
1;04:05:15:347;-5.2636523;0.010773907;
1;04:05:15:358;-7.577648;-1.2773066;
1;04:05:15:368;-1.0714053;2.0362685;
1;04:05:15:379;0.17357962;0.110133275;
1;04:05:15:390;1.283292;1.5370775;
1;04:05:15:400;-3.7229836;1.7513585;
1;04:05:15:410;-9.126697;-2.2290018;
1;04:05:15:421;-12.798205;-0.6536171;
1;04:05:15:431;-8.92319;2.1021092;
1;04:05:15:442;-2.7246015;-0.40821138;
1;04:05:15:452;-3.3865983;0.89902276;
1;04:05:15:462;-6.1985884;1.8004397;
1;04:05:15:473;-3.4584243;3.1615434;
1;04:05:15:483;1.4089876;3.5218706;
1;04:05:15:494;-3.7110126;1.8423382;
1;04:05:15:505;0.8738836;1.4329298;
1;04:05:15:516;-3.6116533;2.3822308;
1;04:05:15:527;-5.5940523;3.551798;
1;04:05:15:537;3.478775;2.3535004;
1;04:05:15:548;-5.056554;1.0366893;
1;04:05:15:558;-5.3462524;1.9967642;
1;04:05:15:568;-6.896498;-0.049081136;
1;04:05:15:578;-1.1695676;0.48243165;
1;04:05:15:588;-2.6084828;3.083732;
1;04:05:15:599;5.4168816;3.6032736;
1;04:05:15:609;-4.2054152;1.5502456;
1;04:05:15:619;-5.0134583;0.60693014;
1;04:05:15:630;3.084929;2.5258827;
1;04:05:15:640;-2.9352913;3.9995139;
1;04:05:15:650;-2.6312277;1.8423382;
1;04:05:15:661;-0.21547815;4.1575313;
1;04:05:15:671;6.18542;2.9221232;
1;04:05:15:682;1.6950948;1.1109096;
1;04:05:15:692;-1.1049241;-0.59735334;
1;04:05:15:702;4.983531;0.33758244;
1;04:05:15:713;-1.602918;3.7840357;
1;04:05:15:724;12.686874;3.357868;
1;04:05:15:734;-0.7457938;5.625177;
1;04:05:15:745;0.7134721;3.4225113;
1;04:05:15:755;1.2066777;2.944868;
1;04:05:15:766;-0.48841715;1.5705963;
1;04:05:15:778;8.51857;2.3463178;
1;04:05:15:789;6.903681;-1.7884687;
1;04:05:15:799;8.451532;-0.8702923;
1;04:05:15:810;8.1797905;1.5729905;
1;04:05:15:820;4.1276035;0.9516952;
1;04:05:15:830;5.993884;6.0022635;
1;04:05:15:841;-0.533907;0.19991584;
1;04:05:15:851;5.3606176;5.2265425;
1;04:05:15:862;10.879252;0.4201824;
1;04:05:15:873;11.622652;0.5279215;
1;04:05:15:883;10.662578;1.520318;
1;04:05:15:894;5.267244;5.4671597;
1;04:05:15:904;7.3418193;-0.81522566;
1;04:05:15:915;-2.3810337;2.0937295;
1;04:05:15:925;4.6830587;3.0454245;
1;04:05:15:936;7.9355817;0.46926352;
1;04:05:15:947;5.6359506;-1.6843209;
1;04:05:15:957;2.9460652;-1.9656396;
1;04:05:15:968;9.998186;2.360683;
1;04:05:15:978;-3.0681696;2.0003555;
1;04:05:15:989;3.1651347;1.2653356;
1;04:05:15:999;-2.2517467;3.5075054;
1;04:05:16:010;7.571663;2.1930888;
1;04:05:16:020;9.5013895;-0.31004912;
1;04:05:16:030;5.6586957;1.3144168;
1;04:05:16:041;-1.9009962;3.1747115;
1;04:05:16:051;3.289633;5.755661;
1;04:05:16:062;5.1080294;1.7896658;
1;04:05:16:072;-2.9508536;0.21547815;
1;04:05:16:082;2.1679497;3.8235402;
1;04:05:16:093;6.38773;0.14604631;
1;04:05:16:102;4.8494554;1.614889;
1;04:05:16:113;-8.663419;-0.82719666;
1;04:05:16:123;-3.7421372;2.4791958;
1;04:05:16:134;-1.1133038;1.3359646;
1;04:05:16:144;-2.8299465;4.818331;
1;04:05:16:154;8.356961;0.46208093;
1;04:05:16:164;8.337808;-0.60812724;
1;04:05:16:174;2.6874914;-0.005985504;
1;04:05:16:184;-0.31244332;5.9759274;
1;04:05:16:194;-2.6503813;0.4321534;
1;04:05:16:204;3.6284127;6.075287;
1;04:05:16:214;-1.4808137;-2.0171149;
1;04:05:16:224;3.86903;-4.4436383;
1;04:05:16:234;-2.3187842;-1.638831;
1;04:05:16:245;-6.817489;-0.023942016;
1;04:05:16:254;-6.2105594;1.0869676;
1;04:05:16:264;7.9475527;10.07121;
1;04:05:16:274;-3.8486793;-0.08619126;
1;04:05:16:285;4.6495395;7.9128366;
1;04:05:16:295;-3.6008794;-0.8391677;
1;04:05:16:305;-3.3973722;1.8064252;
1;04:05:16:315;-1.1755531;2.5797524;
1;04:05:16:326;-0.28491;2.9999347;
1;04:05:16:337;2.1775265;2.2780828;
1;04:05:16:347;2.779668;1.3862427;
1;04:05:16:358;-0.010773907;3.9121256;
1;04:05:16:369;-2.3989902;0.6607997;
1;04:05:16:379;-2.9233203;0.2825158;
1;04:05:16:389;-0.4309563;-1.6938977;
1;04:05:16:400;-0.107739076;-1.0283096;
1;04:05:16:411;-7.1550717;-3.4488475;
1;04:05:16:421;-6.930017;-1.8890251;
1;04:05:16:432;-1.0139444;-5.2145715;
1;04:05:16:442;-9.609129;-8.324639;
1;04:05:16:452;-6.0884547;-1.673547;
1;04:05:16:462;-7.5165963;-7.368156;
1;04:05:16:473;-13.0280485;-0.830788;
1;04:05:16:484;-1.292869;-5.1786585;
1;04:05:16:494;-7.739257;-4.4903255;
1;04:05:16:504;-16.324863;2.56419;
1;04:05:16:514;4.9559975;-2.566584;
1;04:05:16:525;-11.326968;0.01436521;
1;04:05:16:536;-14.399926;-0.18674773;
1;04:05:16:546;-6.3063273;-2.932897;
1;04:05:16:557;-7.827842;-2.0386627;
1;04:05:16:569;-16.551117;-3.9624038;
1;04:05:16:579;-6.4248405;2.7569232;
1;04:05:16:590;-8.420407;-3.7002387;
1;04:05:16:600;-12.006922;3.845088;
1;04:05:16:610;3.7541082;-1.3072342;
1;04:05:16:620;-4.5154643;-9.807847;
1;04:05:16:630;-10.087969;5.046977;
1;04:05:16:641;9.295488;1.6567876;
1;04:05:16:652;-10.070012;-3.145981;
1;04:05:16:663;7.6291237;6.953959;
1;04:05:16:672;-9.710882;-2.373851;
1;04:05:16:682;-26.276363;-6.0250087;
1;04:05:16:693;-10.101137;1.9381063;
1;04:05:16:703;-0.46447513;-4.547786;
1;04:05:16:713;-13.210008;4.272453;
1;04:05:16:724;-8.704121;-1.508347;
1;04:05:16:734;-8.779537;-0.23463176;
1;04:05:16:744;-16.065094;-2.348712;
1;04:05:16:754;-6.6079965;-3.1280246;
1;04:05:16:765;-2.9580362;-0.7410054;
1;04:05:16:775;1.0366893;-1.1827357;
1;04:05:16:786;-10.1382475;-0.7314286;
1;04:05:16:796;-20.293253;-5.741296;
1;04:05:16:807;-9.471462;-0.6799533;
1;04:05:16:817;-2.6563668;-0.9528923;
1;04:05:16:827;-11.186908;0.9828198;
1;04:05:16:837;-3.0131028;-2.742558;
1;04:05:16:848;-12.61864;1.0761937;
1;04:05:16:858;-6.2404866;-4.5022964;
1;04:05:16:869;-16.195578;-0.06344634;
1;04:05:16:880;-3.6272156;-2.4133554;
1;04:05:16:890;-5.6120086;-0.39624038;
1;04:05:16:901;-8.11395;-0.35434186;
1;04:05:16:911;-7.392098;-1.6340426;
1;04:05:16:922;-16.36796;-0.18794483;
1;04:05:16:933;1.8674773;4.856638;
1;04:05:16:943;-2.719813;3.9432502;
1;04:05:16:954;-0.52073884;3.3303347;
1;04:05:16:965;-14.817715;3.5877113;
1;04:05:16:976;-3.0011318;1.8698715;
1;04:05:16:987;-5.5856724;7.7943234;
1;04:05:17:000;-0.78410107;3.6032736;
1;04:05:17:010;-5.1487308;7.192182;
1;04:05:17:020;-6.215348;3.276465;
1;04:05:17:030;-0.7015011;5.3007627;
1;04:05:17:040;-6.5505357;8.516175;
1;04:05:17:051;-5.5341973;4.673482;
1;04:05:17:061;-7.3765354;2.6372132;
1;04:05:17:071;-2.5893292;5.7161565;
1;04:05:17:081;0.51475334;6.126762;
1;04:05:17:092;-4.578911;4.531027;
1;04:05:17:102;-4.4639893;2.1751323;
1;04:05:17:112;-5.913678;4.3418846;
1;04:05:17:122;-2.8502972;1.8471266;
1;04:05:17:132;0.20470424;4.8638206;
1;04:05:17:143;3.7098155;4.997896;
1;04:05:17:152;-4.6830587;-5.031415;
1;04:05:17:163;3.1040826;1.3491327;
1;04:05:17:173;-1.5478514;6.6642604;
1;04:05:17:183;3.7900212;4.2185836;
1;04:05:17:193;0.58298814;4.3646297;
1;04:05:17:203;0.5674258;5.270835;
1;04:05:17:213;0.46806642;0.5470751;
1;04:05:17:224;4.831499;7.489063;
1;04:05:17:235;5.183447;-1.8866309;
1;04:05:17:246;5.2624555;-1.0510546;
1;04:05:17:257;-0.005985504;1.7812861;
1;04:05:17:267;0.23582886;3.66672;
1;04:05:17:278;2.6276364;7.1083846;
1;04:05:17:288;-4.009091;5.877765;
1;04:05:17:298;-4.378995;0.7410054;
1;04:05:17:309;5.6539073;-1.9668367;
1;04:05:17:319;-5.604826;-9.180567;
1;04:05:17:329;7.052121;3.6703112;
1;04:05:17:339;-4.1479545;1.0606314;
1;04:05:17:350;-7.117962;0.9768343;
1;04:05:17:360;6.742072;7.788338;
1;04:05:17:370;-6.0704985;3.4500446;
1;04:05:17:380;3.4261026;5.720945;
1;04:05:17:391;-7.249643;-3.537433;
1;04:05:17:401;7.192182;-1.1468226;
1;04:05:17:412;4.656722;-1.4736311;
1;04:05:17:423;-0.51954174;2.1057005;
1;04:05:17:435;9.9550905;8.8884735;
1;04:05:17:446;7.764396;0.24899697;
1;04:05:17:455;-2.56419;3.3758245;
1;04:05:17:465;6.8749504;2.9364884;
1;04:05:17:475;4.072537;-1.6436194;
1;04:05:17:485;4.309563;2.195483;
1;04:05:17:495;7.9068513;1.8112136;
1;04:05:17:505;2.6288335;1.1552023;
1;04:05:17:515;1.863886;-3.5673606;
1;04:05:17:526;-4.569334;3.7445314;
1;04:05:17:536;1.8662802;0.04309563;
1;04:05:17:546;0.6703765;0.80445176;
1;04:05:17:556;5.7389016;4.4460325;
1;04:05:17:567;-3.3363202;4.2173862;
1;04:05:17:577;8.051701;-0.44532153;
1;04:05:17:588;9.029732;0.6871359;
1;04:05:17:598;8.008605;3.8187518;
1;04:05:17:609;4.4580035;-0.19273324;
1;04:05:17:620;2.4349031;-1.8124107;
1;04:05:17:630;10.96305;10.006566;
1;04:05:17:641;13.311762;2.4863784;
1;04:05:17:651;-15.88074;-6.695385;
1;04:05:17:662;6.0381765;-9.563639;
1;04:05:17:673;-19.756952;4.865018;
1;04:05:17:683;27.78112;8.620323;
1;04:05:17:694;-0.79607207;0.6967127;
1;04:05:17:704;-1.115698;10.758346;
1;04:05:17:715;-2.5953147;-0.16998832;
1;04:05:17:726;1.970428;6.8665705;
1;04:05:17:737;-12.008119;1.8088194;
1;04:05:17:748;6.149507;2.0685902;
1;04:05:17:758;4.911705;-4.083311;
1;04:05:17:769;2.2529438;-0.8439561;
1;04:05:17:780;-11.03727;4.2640734;
1;04:05:17:790;1.7585411;2.2002714;
1;04:05:17:800;-2.778471;5.5270147;
1;04:05:17:810;-0.15562311;6.9946604;
1;04:05:17:820;3.9803603;-3.3375173;
1;04:05:17:831;2.6599581;-1.1971009;
1;04:05:17:841;-6.3721676;-2.9388826;
1;04:05:17:851;-7.475895;0.24899697;
1;04:05:17:862;9.202114;11.067198;
1;04:05:17:872;6.3242836;6.133945;
1;04:05:17:882;2.9712043;-0.6440403;
1;04:05:17:892;-0.7146692;-3.930082;
1;04:05:17:902;-9.314642;-0.6787562;
1;04:05:17:913;-7.8865004;-0.019153614;
1;04:05:17:923;-3.6367924;0.6847417;
1;04:05:17:934;2.5953147;-3.0430303;
1;04:05:17:944;-0.2873042;0.21667525;
1;04:05:17:954;-8.157045;-3.750517;
1;04:05:17:965;-5.1798553;1.2174516;
1;04:05:17:975;-3.4739866;-5.2995653;
1;04:05:17:986;-9.198523;-3.3411086;
1;04:05:17:998;-8.379706;3.430891;
1;04:05:18:010;0.23822308;-3.5446155;
1;04:05:18:021;-13.148955;-7.735666;
1;04:05:18:032;-9.2308445;-2.717419;
1;04:05:18:043;-12.29662;-2.2409728;
1;04:05:18:053;3.8845923;-2.3008277;
1;04:05:18:063;-8.0924015;-6.253655;
1;04:05:18:073;-9.507375;2.5151088;
1;04:05:18:083;-9.873688;-4.1575313;
1;04:05:18:094;-9.634268;-3.0250738;
1;04:05:18:104;-8.556877;2.5725696;
1;04:05:18:114;2.5797524;-0.6655881;
1;04:05:18:124;-16.506824;-1.958457;
1;04:05:18:134;-10.061633;-1.6591818;
1;04:05:18:144;-9.469068;0.08140286;
1;04:05:18:154;-18.50718;-4.7381253;
1;04:05:18:165;-10.836157;-6.101623;
1;04:05:18:174;-16.8468;-1.8555063;
1;04:05:18:184;-1.9644425;-0.021547815;
1;04:05:18:194;-10.794258;-3.0801406;
1;04:05:18:205;-13.965379;0.130484;
1;04:05:18:216;1.1444284;4.3239284;
1;04:05:18:226;-8.973468;-0.36631286;
1;04:05:18:237;-14.407108;-0.18435353;
1;04:05:18:247;5.3522377;6.173449;
1;04:05:18:258;2.598906;-0.6392518;
1;04:05:18:267;-16.395493;1.5478514;
1;04:05:18:278;-10.667366;-6.1542954;
1;04:05:18:288;2.0733786;-1.9297266;
1;04:05:18:298;-3.1316159;5.543774;
1;04:05:18:308;-11.729194;-5.395334;
1;04:05:18:318;-9.764751;-6.5936313;
1;04:05:18:328;-0.62368953;4.179079;
1;04:05:18:338;14.488512;2.1320367;
1;04:05:18:349;-1.5646108;-6.554127;
1;04:05:18:359;-1.1312603;5.2959743;
1;04:05:18:369;-13.917495;-6.7205243;
1;04:05:18:380;2.790442;-1.7501614;
1;04:05:18:390;-16.982073;0.04189853;
1;04:05:18:400;-17.183186;-5.5162406;
1;04:05:18:410;-12.397177;-3.6942532;
1;04:05:18:420;-8.954314;2.4301147;
1;04:05:18:431;-1.8339585;0.08738836;
1;04:05:18:442;-10.523713;-5.0996494;
1;04:05:18:452;-4.56694;-1.9740193;
1;04:05:18:462;-13.909115;-4.247314;
1;04:05:18:473;-9.68694;-3.204639;
1;04:05:18:483;-16.808493;1.400608;
1;04:05:18:493;-9.337387;-2.468422;
1;04:05:18:504;-3.0705638;1.328782;
1;04:05:18:514;-5.12838;1.7944542;
1;04:05:18:525;-0.56982;-3.8666358;
1;04:05:18:535;-2.682703;3.4045548;
1;04:05:18:546;-11.796232;-0.41180268;
1;04:05:18:555;-9.688137;-3.240552;
1;04:05:18:566;-0.7086837;6.481104;
1;04:05:18:576;-7.751228;-0.2765303;
1;04:05:18:587;3.1411927;6.155493;
1;04:05:18:597;-10.274716;4.1252093;
1;04:05:18:608;-11.8261595;0.1328782;
1;04:05:18:618;2.1763294;2.9700072;
1;04:05:18:629;1.8136078;1.3958195;
1;04:05:18:640;0.34715924;5.436035;
1;04:05:18:650;-6.685808;0.6703765;
1;04:05:18:660;0.47405192;5.315128;
1;04:05:18:670;-1.2964603;3.5410242;
1;04:05:18:681;-7.5429325;3.095703;
1;04:05:18:691;-1.8842367;3.0011318;
1;04:05:18:701;1.1456255;1.6759412;
1;04:05:18:712;-3.064578;3.7828386;
1;04:05:18:722;0.07182605;6.5230026;
1;04:05:18:733;0.08738836;-4.128801;
1;04:05:18:744;5.4779334;0.1376666;
1;04:05:18:754;-4.280833;1.22224;
1;04:05:18:765;-8.9279785;5.3678;
1;04:05:18:775;-6.0130377;-2.492364;
1;04:05:18:786;3.4213142;-0.23104046;
1;04:05:18:796;6.823475;8.286332;
1;04:05:18:806;1.7489643;5.129577;
1;04:05:18:817;-1.1504139;8.058883;
1;04:05:18:827;-8.404845;0.7350199;
1;04:05:18:838;-6.939594;4.0043025;
1;04:05:18:848;-8.261193;0.34356794;
1;04:05:18:859;-1.4903905;4.6255975;
1;04:05:18:870;-9.862914;-0.81283146;
1;04:05:18:880;0.46686932;4.2341456;
1;04:05:18:891;2.0290859;1.7357962;
1;04:05:18:902;-2.2158337;8.288726;
1;04:05:18:913;-6.3769565;-8.747216;
1;04:05:18:923;0.7026982;-4.748899;
1;04:05:18:934;-5.1200004;-1.1228806;
1;04:05:18:943;-4.569334;-0.7433996;
1;04:05:18:953;7.406463;11.115082;
1;04:05:18:964;-9.309854;-0.25378537;
1;04:05:18:974;3.6595373;5.4288526;
1;04:05:18:984;-1.2497733;6.25964;
1;04:05:18:995;-0.30047232;5.17387;
1;04:05:19:005;-8.39886;1.9261353;
1;04:05:19:016;-8.445546;-0.9588778;
1;04:05:19:026;-6.0716953;3.4931402;
1;04:05:19:037;0.92895025;6.2392898;
1;04:05:19:048;-3.502717;1.6376339;
1;04:05:19:058;-17.06587;-6.467936;
1;04:05:19:069;6.5864487;-0.23822308;
1;04:05:19:079;-13.885173;-1.2904748;
1;04:05:19:090;-11.554418;5.4061074;
1;04:05:19:101;6.989872;6.671443;
1;04:05:19:112;-10.448297;-0.023942016;
1;04:05:19:121;0.050278235;4.462792;
1;04:05:19:132;5.5401826;0.49200845;
1;04:05:19:142;0.49320555;-2.8981812;
1;04:05:19:153;1.1085154;-4.1335893;
1;04:05:19:163;-0.8762778;4.441244;
1;04:05:19:174;-1.4927847;0.32800564;
1;04:05:19:184;3.3614593;-0.22026655;
1;04:05:19:195;-0.5626374;7.599196;
1;04:05:19:205;5.647922;6.5625067;
1;04:05:19:215;-0.7086837;-0.47405192;
1;04:05:19:225;-2.2290018;-3.6355953;
1;04:05:19:235;-0.18435353;-4.1132383;
1;04:05:19:245;-2.9640217;0.08499416;
1;04:05:19:256;-3.4488475;1.3790601;
1;04:05:19:267;16.321274;10.005369;
1;04:05:19:278;-9.289502;-2.304419;
1;04:05:19:288;-17.147272;0.8487445;
1;04:05:19:298;-0.50278234;5.6156;
1;04:05:19:309;-2.5917234;-7.2364745;
1;04:05:19:319;2.9161377;10.415975;
1;04:05:19:330;-5.237316;-4.474763;
1;04:05:19:339;-1.0618285;5.493496;
1;04:05:19:349;0.24181437;4.5262384;
1;04:05:19:359;-6.113594;1.7932571;
1;04:05:19:369;-3.3195608;7.145495;
1;04:05:19:379;-7.428011;5.9902925;
1;04:05:19:389;-10.092757;-1.9560628;
1;04:05:19:399;1.30484;3.1519666;
1;04:05:19:410;-5.297171;0.5446809;
1;04:05:19:420;-3.9109285;2.7617116;
1;04:05:19:431;-3.681085;-0.2693477;
1;04:05:19:442;-11.15698;-10.522516;
1;04:05:19:452;-17.45373;-1.7908629;
1;04:05:19:462;2.60968;10.788273;
1;04:05:19:473;2.6910827;2.0949266;
1;04:05:19:484;7.9188223;10.492589;
1;04:05:19:494;-7.1083846;2.4779987;
1;04:05:19:505;-3.0550013;2.6324248;
1;04:05:19:515;-18.951303;-3.1519666;
1;04:05:19:526;-9.939528;0.92176765;
1;04:05:19:537;16.628927;-1.5119383;
1;04:05:19:546;-3.5565867;-0.5590461;
1;04:05:19:556;-15.836447;3.8115692;
1;04:05:19:567;-5.7137623;-3.7110126;
1;04:05:19:577;-4.537012;6.5828576;
1;04:05:19:586;-10.617087;-0.5781997;
1;04:05:19:596;-5.9926867;-1.271321;
1;04:05:19:607;-12.254722;1.7776948;
1;04:05:19:617;5.853823;6.8162923;
1;04:05:19:627;-18.169598;1.4389153;
1;04:05:19:638;-2.6013002;-6.9850836;
1;04:05:19:648;-8.644265;5.5964465;
1;04:05:19:659;-20.76132;-8.74961;
1;04:05:19:669;4.0857053;4.92607;
1;04:05:19:679;-4.5034933;-3.0262709;
1;04:05:19:690;1.9476831;4.5298295;
1;04:05:19:701;-16.274586;4.176685;
1;04:05:19:711;-4.606444;-11.818976;
1;04:05:19:721;-5.433641;6.694188;
1;04:05:19:732;3.976769;0.25139117;
1;04:05:19:742;8.0445175;-9.082404;
1;04:05:19:753;11.476605;-6.8545995;
1;04:05:19:763;3.83192;2.2098482;
1;04:05:19:773;10.490194;0.50278234;
1;04:05:19:784;-2.979584;1.5873557;
1;04:05:19:794;-13.769054;-4.370615;
1;04:05:19:805;-7.8972745;-2.767697;
1;04:05:19:815;-8.446744;0.770933;
1;04:05:19:826;-6.5002575;2.5234885;
1;04:05:19:837;8.1402855;-6.1100025;
1;04:05:19:847;1.673547;0.4225766;
1;04:05:19:859;15.246277;7.193379;
1;04:05:19:869;-0.80684596;-0.20350714;
1;04:05:19:880;22.886173;1.3215994;
1;04:05:19:890;14.4933;3.0897174;
1;04:05:19:901;9.822212;-0.31364042;
1;04:05:19:911;11.535264;1.377863;
1;04:05:19:922;11.757924;-11.149797;
1;04:05:19:932;-0.78769237;6.066907;
1;04:05:19:943;10.086772;-1.0426749;
1;04:05:19:954;15.877149;-5.717354;
1;04:05:19:964;9.758766;3.2549171;
1;04:05:19:975;2.920926;-2.397793;
1;04:05:19:985;9.674969;0.12689269;
1;04:05:19:996;16.593016;-0.9983821;
1;04:05:20:007;-2.3056161;-7.231686;
1;04:05:20:017;13.965379;1.3694834;
1;04:05:20:028;2.3211784;-9.8677025;
1;04:05:20:038;16.670826;-8.846576;
1;04:05:20:049;15.065515;0.7757214;
1;04:05:20:059;23.88695;-0.5446809;
1;04:05:20:069;-5.1726727;-5.5006785;
1;04:05:20:080;22.110453;3.5936968;
1;04:05:20:090;23.22615;2.789245;
1;04:05:20:100;-29.996954;-15.773001;
1;04:05:20:111;23.199814;0.010773907;
1;04:05:20:121;-3.1723173;5.351041;
1;04:05:20:131;8.585608;-13.994109;
1;04:05:20:141;19.561825;-3.3722332;
1;04:05:20:152;27.196934;-2.8981812;
1;04:05:20:162;11.506534;-10.251971;
1;04:05:20:173;15.564705;6.054936;
1;04:05:20:183;16.63611;1.0606314;
1;04:05:20:193;-9.478644;-17.459717;
1;04:05:20:204;22.584505;10.295067;
1;04:05:20:214;2.3630772;-2.4983494;
1;04:05:20:225;1.0749966;-0.2813187;
1;04:05:20:235;16.522387;0.6619968;
1;04:05:20:245;-2.2780828;-7.926005;
1;04:05:20:256;7.2221093;-9.075222;
1;04:05:20:266;15.659276;-4.6363716;
1;04:05:20:276;33.42425;0.6631939;
1;04:05:20:287;-9.2907;-8.882488;
1;04:05:20:298;13.305776;6.6427126;
1;04:05:20:309;5.54138;-3.3758245;
1;04:05:20:320;-0.14844051;-0.81761986;
1;04:05:20:330;14.074315;-1.5143325;
1;04:05:20:340;17.885883;-0.49200845;
1;04:05:20:351;11.314998;-7.303512;
1;04:05:20:362;26.821045;-0.7110779;
1;04:05:20:373;6.14831;-6.489484;
1;04:05:20:383;1.1611878;-2.8694508;
1;04:05:20:394;-3.3159695;-0.60453594;
1;04:05:20:405;19.009962;-1.7286136;
1;04:05:20:416;6.2105594;-1.4496891;
1;04:05:20:426;9.232041;2.2649148;
1;04:05:20:437;6.692991;-2.0973208;
1;04:05:20:448;18.282124;5.8945246;
1;04:05:20:458;12.148179;-3.2680852;
1;04:05:20:469;18.484434;9.143456;
1;04:05:20:479;2.6874914;-1.1013328;
1;04:05:20:489;16.788143;5.777209;
1;04:05:20:500;-1.2425907;7.3059063;
1;04:05:20:510;10.278308;12.109872;
1;04:05:20:521;1.7848774;7.043741;
1;04:05:20:532;9.7563715;9.239224;
1;04:05:20:544;10.078392;8.259995;
1;04:05:20:557;8.874108;-0.8559271;
1;04:05:20:568;1.8459295;12.546814;
1;04:05:20:578;8.463503;10.405201;
1;04:05:20:588;9.494206;1.9009962;
1;04:05:20:598;10.308235;-0.39624038;
1;04:05:20:608;3.4500446;9.234436;
1;04:05:20:619;4.38498;3.4213142;
1;04:05:20:628;-5.8622026;7.7009497;
1;04:05:20:639;3.9911342;10.102334;
1;04:05:20:650;3.679888;0.24061728;
1;04:05:20:659;2.2397757;9.810242;
1;04:05:20:669;0.075417355;8.725668;
1;04:05:20:680;2.8083985;2.0685902;
1;04:05:20:690;5.686229;-0.4441244;
1;04:05:20:700;6.2129536;7.6734166;
1;04:05:20:711;5.6108117;0.24540567;
1;04:05:20:721;-2.6862943;3.7612908;
1;04:05:20:732;-5.149928;4.6136265;
1;04:05:20:742;7.7943234;-0.034715924;
1;04:05:20:753;3.2106245;4.068946;
1;04:05:20:764;0.30645782;7.989451;
1;04:05:20:774;-0.077811554;5.2684407;
1;04:05:20:785;4.8135424;3.9612067;
1;04:05:20:796;5.234922;6.027403;
1;04:05:20:808;5.768829;3.0813377;
1;04:05:20:818;-6.2285156;2.4169466;
1;04:05:20:829;3.9851487;2.4744074;
1;04:05:20:839;3.7576995;-0.48482585;
1;04:05:20:850;4.0019083;2.172738;
1;04:05:20:860;-4.7548847;3.1627405;
1;04:05:20:870;-3.1471782;11.98298;
1;04:05:20:881;11.031284;-0.17836803;
1;04:05:20:892;1.9895816;-2.1930888;
1;04:05:20:903;7.9116397;4.5920787;
1;04:05:20:913;3.3446999;2.4851813;
1;04:05:20:924;4.52145;-1.2318168;
1;04:05:20:934;8.476671;2.171541;
1;04:05:20:945;-3.229778;5.9148755;
1;04:05:20:956;3.406949;3.0597897;
1;04:05:20:966;5.3366756;5.3881507;
1;04:05:20:977;0.5602432;0.24061728;
1;04:05:20:987;2.4169466;0.82719666;
1;04:05:20:998;5.209783;4.23654;
1;04:05:21:009;6.477513;4.703409;
1;04:05:21:019;-0.62129533;2.5558102;
1;04:05:21:030;0.6428431;9.507375;
1;04:05:21:040;-1.4784195;-4.602853;
1;04:05:21:051;2.4768016;-0.6679823;
1;04:05:21:062;0.4261679;5.0864816;
1;04:05:21:072;1.3012487;-1.0690111;
1;04:05:21:083;4.27365;-0.6440403;
1;04:05:21:094;4.3263226;7.1227503;
1;04:05:21:104;0.5422867;3.2130187;
1;04:05:21:115;5.255273;4.2999864;
1;04:05:21:125;-2.8862102;1.2389994;
1;04:05:21:136;0.12449849;0.2681506;
1;04:05:21:146;-2.3870192;1.5358804;
1;04:05:21:157;6.619968;4.050989;
1;04:05:21:166;-3.0789435;4.59567;
1;04:05:21:176;-4.6279917;1.6484078;
1;04:05:21:186;7.7931266;7.371747;
1;04:05:21:196;4.8398786;-0.15083471;
1;04:05:21:207;-0.05865794;-2.0087352;
1;04:05:21:218;2.4672248;5.081693;
1;04:05:21:229;2.7246015;5.079299;
1;04:05:21:239;0.2801216;3.6990416;
1;04:05:21:249;-6.8282633;-0.5626374;
1;04:05:21:260;-3.845088;4.675876;
1;04:05:21:271;-5.29358;-1.6244658;
1;04:05:21:282;-4.6471453;5.5725045;
1;04:05:21:292;1.411382;7.0126166;
1;04:05:21:303;-5.0278234;-1.1815386;
1;04:05:21:314;-4.459201;-1.6316484;
1;04:05:21:325;-4.2700586;6.3182983;
1;04:05:21:335;-7.079654;0.17836803;
1;04:05:21:346;-1.270124;2.2661119;
1;04:05:21:357;10.2735195;2.7150247;
1;04:05:21:368;-18.511967;-2.7126305;
1;04:05:21:377;-2.6970682;-1.0414777;
1;04:05:21:387;-10.576386;0.14844051;
1;04:05:21:398;-12.652159;7.1514807;
1;04:05:21:408;-10.474632;-2.6982653;
1;04:05:21:419;-5.7257333;8.945934;
1;04:05:21:430;1.3275849;4.253299;
1;04:05:21:440;-13.019669;-4.951209;
1;04:05:21:451;5.2121773;5.85502;
