Round;Timestamp;AccX;AccY;AccZ;Acc Vector a;
0;07:01:54:335;1.9883845;-0.14963761;9.228451;9.441417967126572;
0;07:01:54:345;-0.8511387;0.20231004;8.5700445;8.614582349292064;
0;07:01:54:355;3.040636;0.5327099;9.672575;10.15322408348948;
0;07:01:54:365;0.79128367;0.11252748;11.830948;11.857913926178755;
0;07:01:54:375;-3.881001;-1.9931729;13.278243;13.976646563819301;
0;07:01:54:385;0.24301147;-0.50517654;8.947132;8.964676520090576;
0;07:01:54:396;-0.5554548;-0.39983168;10.955867;10.977222789304024;
0;07:01:54:406;-0.47644615;-1.4520833;10.788273;10.895980065684633;
0;07:01:54:416;-1.1348516;-1.9405005;8.477868;8.770842225228074;
0;07:01:54:426;-0.4165911;-2.610877;12.193669;12.477011331548038;
0;07:01:54:436;3.0418332;-1.4065934;11.830948;12.296445652447447;
0;07:01:54:446;-0.8331822;-1.3754689;11.765107;11.874503998687429;
0;07:01:54:457;-0.9684546;-0.8774749;10.641029;10.7209779965104;
0;07:01:54:467;3.0897174;-0.7015011;9.058462;9.596571914224517;
0;07:01:54:476;0.8571242;-2.4181437;10.839748;11.139220332422633;
0;07:01:54:486;0.21188685;0.18315643;8.038532;8.043410301593793;
0;07:01:54:496;0.62728083;-2.15957;12.970588;13.164093796327784;
0;07:01:54:507;0.81283146;-1.2617443;9.836577;9.950424522659942;
0;07:01:54:518;-0.3890578;0.29328972;9.153033;9.165991694713595;
0;07:01:54:529;-0.2633622;0.11372458;8.935161;8.9397644162127;
0;07:01:54:540;1.9129672;-1.697489;10.471041;10.778850078222122;
0;07:01:54:551;-1.0941502;-2.2230163;11.832145;12.088780370237675;
0;07:01:54:562;-0.8750807;-1.899799;12.824541;12.993993104951358;
0;07:01:54:572;0.90500826;-0.9684546;11.143812;11.222365622868463;
0;07:01:54:583;-0.18914193;-0.21068975;9.184157;9.18852051756744;
0;07:01:54:593;-1.9093759;-1.1133038;10.43034;10.661948909135498;
0;07:01:54:604;-0.700304;-0.7529764;9.004593;9.063117065468305;
0;07:01:54:614;0.260968;-2.554613;10.492589;10.802248642973781;
0;07:01:54:625;-0.24420857;-2.256535;12.460623;12.665650444089913;
0;07:01:54:635;1.460463;-0.29807812;9.500193;9.616416373430775;
0;07:01:54:645;-0.62847793;-0.2705448;12.356475;12.375405044862736;
0;07:01:54:655;0.23582886;0.34237084;8.911219;8.92091121244638;
0;07:01:54:665;-1.1133038;-2.360683;11.528081;11.81985293224259;
0;07:01:54:675;-0.021547815;-1.0570401;9.059659;9.121141427873248;
0;07:01:54:686;0.19273324;-2.552219;11.723208;11.999357206294754;
0;07:01:54:697;2.7868507;-1.8435353;11.611878;12.083082595503749;
0;07:01:54:708;-0.7170634;1.2425907;10.243592;10.343567814908043;
0;07:01:54:719;0.6823475;-0.050278235;10.783484;10.805168356300971;
0;07:01:54:729;1.3467385;-2.5306711;12.984953;13.297631785712765;
0;07:01:54:739;-1.3383588;-1.6603789;10.827777;11.035797132938562;
0;07:01:54:749;-0.8750807;0.0047884034;9.287108;9.328246047162684;
0;07:01:54:760;0.8583213;-0.16759412;7.502231;7.553030848202361;
0;07:01:54:770;1.7489643;-2.019509;10.984597;11.30480729193182;
0;07:01:54:781;-0.688333;-1.6651673;11.130644;11.2755406692013;
0;07:01:54:799;-0.94690675;0.9923966;8.433576;8.544394849818762;
0;07:01:54:810;-0.89303726;-0.80325466;10.811018;10.877538625884865;
0;07:01:54:821;-0.38307226;-1.8435353;10.588357;10.754472024142627;
0;07:01:54:832;0.81402856;-2.7485435;10.890026;11.260985711487958;
0;07:01:54:843;-1.1707647;-1.7717092;11.026496;11.229125259313633;
0;07:01:54:853;0.5231331;-0.5291186;9.688137;9.71666790900596;
0;07:01:54:863;-0.025139118;-2.0590134;11.416751;11.60096470997772;
0;07:01:54:874;0.59735334;-2.1021092;9.259575;9.513959566644278;
0;07:01:54:884;-1.3826514;-1.7561469;9.743204;9.99628913691421;
0;07:01:54:894;0.21188685;1.6041151;9.400833;9.53906409961084;
0;07:01:54:907;2.243367;-1.7154455;11.514913;11.856165676591283;
0;07:01:54:918;1.389834;-0.4405331;11.273099;11.366990172256324;
0;07:01:54:927;0.24061728;-1.1719618;10.469844;10.53797982821486;
0;07:01:54:937;-0.46567222;-0.4381389;8.445546;8.469714345607613;
0;07:01:54:948;-1.0534488;-1.4389153;9.770737;9.932145889618026;
0;07:01:54:958;0.8379706;-2.1140802;11.013328;11.245662276804568;
0;07:01:54:969;-0.23822308;-0.11133038;9.67018;9.673754976189725;
0;07:01:54:980;-2.1787236;-1.8818425;11.300632;11.66158060291156;
0;07:01:54:990;0.61171854;-0.36032736;10.144233;10.169045800500447;
0;07:01:55:000;0.4201824;-0.48961425;9.959879;9.980754643654754;
0;07:01:55:011;0.8726865;-1.8650831;11.407174;11.591537387839107;
0;07:01:55:021;-1.4065934;-2.802413;11.2132435;11.643403611326457;
0;07:01:55:032;-0.015562311;-1.3084313;11.155783;11.232262424696374;
0;07:01:55:041;-0.7625532;-0.60573304;8.456321;8.512212619047705;
0;07:01:55:052;-0.2777274;-0.45729253;8.9519205;8.967894190985035;
0;07:01:55:063;1.6316484;-4.334702;11.984177;12.848050550729537;
0;07:01:55:074;1.0714053;-4.8662148;11.33056;12.37778387642175;
0;07:01:55:085;1.6280571;-1.9428947;10.776301;11.070414497589397;
0;07:01:55:096;-1.3467385;-4.5896845;9.4535055;10.594700593412846;
0;07:01:55:108;-0.2789245;-4.489128;10.085575;11.04304751033109;
0;07:01:55:117;0.30765492;-3.0310593;9.186552;9.678569787668302;
0;07:01:55:128;-0.11971009;-1.9776106;11.45865;11.628668093589196;
0;07:01:55:138;1.1719618;-5.7628436;12.018892;13.38049431724509;
0;07:01:55:148;-0.5255273;-6.349423;10.213664;12.037868512336912;
0;07:01:55:159;0.12689269;-6.471527;8.572439;10.74167044210158;
0;07:01:55:170;0.2765303;-5.5629277;8.508993;10.169837665593844;
0;07:01:55:181;-0.92895025;-4.9284644;9.696517;10.916737058766868;
0;07:01:55:191;-0.59615624;-3.0669725;9.886856;10.368782110549661;
0;07:01:55:202;0.415394;-2.9460652;10.314221;10.734757373557198;
0;07:01:55:212;0.61052144;-1.9596541;10.188525;10.393220276216653;
0;07:01:55:223;-0.108936176;-5.389348;10.093954;11.443113856653184;
0;07:01:55:233;-0.34356794;-4.724957;10.700885;11.702657570563499;
0;07:01:55:243;-0.40821138;-3.728969;10.41358;11.068626646951707;
0;07:01:55:254;-0.06344634;-4.426879;9.809045;10.761906971471072;
0;07:01:55:264;0.5255273;-3.9971197;9.727641;10.529964017598259;
0;07:01:55:275;1.0761937;-1.5849615;9.856929;10.041381283156738;
0;07:01:55:286;0.22864626;-3.7205894;11.560403;12.146521276726789;
0;07:01:55:296;-0.8774749;-2.1571758;10.898406;11.144443622596265;
0;07:01:55:307;0.34476504;-2.5354595;9.800665;10.129187954046387;
0;07:01:55:318;1.1025299;-2.6396074;10.158598;10.553682337291797;
0;07:01:55:328;-0.80445176;-2.8502972;10.081984;10.507984213861835;
0;07:01:55:339;0.3172317;1.1875241;9.66659;9.744424252674618;
0;07:01:55:349;-0.051475335;0.50158525;8.992621;9.006746094996048;
0;07:01:55:360;-0.78410107;0.8439561;9.4295635;9.499671127248506;
0;07:01:55:370;0.40821138;1.4939818;9.629479;9.753230024491605;
0;07:01:55:380;0.79487497;6.9503675;10.907983;12.958530894712515;
0;07:01:55:391;-0.770933;-1.6364368;8.925584;9.10704720070234;
0;07:01:55:402;0.7553706;0.29688102;9.309854;9.345164112264495;
0;07:01:55:412;0.7074866;0.6823475;11.888409;11.928973123461777;
0;07:01:55:423;-0.6428431;-0.039504327;10.609905;10.62943561193268;
0;07:01:55:433;-0.5734113;-1.4173675;9.281123;9.406219989310515;
0;07:01:55:444;1.2054806;-0.008379706;10.852917;10.919663888977636;
0;07:01:55:454;-0.80924016;0.82599956;9.2907;9.362384904426479;
0;07:01:55:464;-0.29807812;0.92655605;11.026496;11.069370700830392;
0;07:01:55:474;-0.06464344;0.62009823;11.5951185;11.611868055413312;
0;07:01:55:484;-0.03232172;-0.2621651;10.642226;10.6455041843202;
0;07:01:55:494;-0.047884032;-0.1352724;9.1590185;9.160142507319115;
0;07:01:55:504;-0.16639702;-0.4237737;9.563639;9.574469361902608;
0;07:01:55:514;0.30286652;0.1316811;10.359711;10.364973623828295;
0;07:01:55:525;0.3866636;-0.2801216;9.379285;9.391430101458774;
0;07:01:55:535;0.62009823;0.61411273;10.788273;10.82351564445498;
0;07:01:55:546;0.29927522;0.7469909;10.99178;11.02119761527757;
0;07:01:55:556;0.24420857;0.38187516;9.909601;9.91996282939715;
0;07:01:55:567;0.12210429;0.56982;10.119094;10.13586069345225;
0;07:01:55:577;-0.23702596;-0.48961425;9.933543;9.948426195979717;
0;07:01:55:588;-0.16759412;0.6356605;10.311827;10.332759677181441;
0;07:01:55:599;0.30166942;0.053869538;10.444705;10.449199401267133;
0;07:01:55:610;0.44651863;1.0761937;11.300632;11.36053956160795;
0;07:01:55:620;1.1899183;3.8187518;10.9343195;11.642942302903936;
0;07:01:55:630;-1.2904748;-1.0761937;10.07121;10.210425296186438;
0;07:01:55:641;-1.5370775;0.05746084;8.948329;9.079564937301985;
0;07:01:55:651;0.12090719;-1.3587095;10.477027;10.565453471946725;
0;07:01:55:662;0.3196259;0.7529764;9.314642;9.350491646473019;
0;07:01:55:672;-0.33518824;-0.04309563;10.967838;10.973043878321384;
0;07:01:55:683;0.2633622;3.58412;9.856929;10.491630851880412;
0;07:01:55:693;-0.08140286;2.1918917;10.808623;11.028932495475077;
0;07:01:55:703;0.35194764;0.80445176;10.971429;11.006510108590634;
0;07:01:55:714;0.16759412;-0.89902276;9.639056;9.682341352680364;
0;07:01:55:725;0.12330139;-0.6344634;10.164583;10.185111485481134;
0;07:01:55:736;0.51954174;-0.07182605;9.82341;9.837401459138572;
0;07:01:55:746;0.021547815;-0.2789245;10.547656;10.551365508165949;
0;07:01:55:756;-0.8774749;0.9528923;11.742362;11.813595352654076;
0;07:01:55:769;-0.06703765;-0.7625532;9.653421;9.683724929148802;
0;07:01:55:778;-0.17238252;-0.44771573;9.753978;9.765769139561257;
0;07:01:55:788;0.2705448;-0.7733272;9.69532;9.729874404770968;
0;07:01:55:799;-0.21188685;-0.4177882;10.571598;10.58197176928189;
0;07:01:55:809;-0.17238252;-0.22505496;10.180145;10.184091945763532;
0;07:01:55:819;-0.30166942;-0.33159694;10.556035;10.56554951182457;
0;07:01:55:829;0.093373865;-0.19871874;10.569203;10.571483877029975;
0;07:01:55:839;-0.035913024;-0.40342298;10.382456;10.390352586889572;
0;07:01:55:849;-0.19871874;-0.30885202;10.081984;10.088670521341431;
0;07:01:55:859;0.15562311;-0.50996494;10.199299;10.213225851796517;
0;07:01:55:869;0.18435353;-0.35913026;10.241198;10.249150682943426;
0;07:01:55:879;-0.019153614;-0.37948096;10.192117;10.199196682880187;
0;07:01:55:889;-0.08738836;-0.37828386;10.156203;10.163621498527581;
0;07:01:55:900;-0.059855044;-0.39384618;10.316615;10.324303732387659;
0;07:01:55:911;-0.053869538;-0.50637364;10.171766;10.184505092636245;
0;07:01:55:921;-0.20949265;-0.48722005;10.155006;10.168845855129806;
0;07:01:55:931;-0.017956512;-0.5303157;10.229227;10.242980041800275;
0;07:01:55:942;0.053869538;-0.4237737;10.257957;10.266848602994806;
0;07:01:55:953;0.19512744;-0.7541735;10.253169;10.28271993315158;
0;07:01:55:963;0.107739076;-0.9792285;10.266336;10.31349427025099;
0;07:01:55:973;-0.1352724;-1.3335704;10.06283;10.151711726431287;
0;07:01:55:984;-0.047884032;-1.460463;10.171766;10.276189700860256;
0;07:01:55:994;0.272939;-1.6160861;10.278308;10.408162625707002;
0;07:01:56:005;0.10175357;-2.0290859;10.2974615;10.495963637777471;
0;07:01:56:016;0.079008654;-1.9189527;10.329783;10.506809751178563;
0;07:01:56:027;-0.14604631;-1.3491327;10.040085;10.131376919195564;
0;07:01:56:038;0.0011971008;-1.1228806;10.201694;10.263304472789057;
0;07:01:56:049;0.076614454;-0.81043726;10.254366;10.286627479160481;
0;07:01:56:058;-0.01316811;-0.5674258;10.332177;10.34775467995371;
0;07:01:56:068;0.1340753;-0.49559975;10.307038;10.319817553541288;
0;07:01:56:078;-0.28491;-0.58897364;10.43034;10.450839900527845;
0;07:01:56:089;0.08140286;-0.16759412;10.485406;10.487061294273232;
0;07:01:56:098;-5.6778493;-1.4676456;14.306552;15.461868635901263;
0;07:01:56:108;1.2054806;13.469779;11.07438;17.47941730427176;
0;07:01:56:118;6.907272;3.9001546;4.2784386;9.012582672205555;
0;07:01:56:128;5.9268465;2.0685902;-5.3354783;8.238561850662256;
0;07:01:56:138;5.127183;11.761516;4.6040497;13.631527518237593;
0;07:01:56:149;-1.4879963;8.2037325;13.543999;15.904567307238155;
0;07:01:56:159;0.6859388;8.35337;8.318654;11.808865750051288;
0;07:01:56:170;-5.163096;19.272127;10.359711;22.481015482600117;
0;07:01:56:180;2.5091233;9.0716305;17.53274;19.899425923870503;
0;07:01:56:190;-6.992266;11.207258;5.66947;14.374884298107737;
0;07:01:56:201;-3.3782187;14.356831;5.064934;15.594373793729414;
0;07:01:56:211;3.7373488;10.658986;2.8395233;11.646658461563664;
0;07:01:56:221;-0.08738836;15.7825775;15.164873;21.887684659325977;
0;07:01:56:232;-6.975507;7.1143703;-8.095993;12.838109766547788;
0;07:01:56:243;-3.4608185;7.5082164;0.35194764;8.27492895182278;
0;07:01:56:253;-0.40462008;15.555128;7.8027034;17.407122222031255;
0;07:01:56:264;5.7808;2.8383262;14.008474;15.41788215313279;
0;07:01:56:274;1.2401965;18.93215;5.8454432;19.852798441454826;
0;07:01:56:285;-5.4204726;13.621811;10.803835;18.211482121307082;
0;07:01:56:295;0.7386112;6.622362;21.155167;22.179772119202795;
0;07:01:56:306;5.729325;17.191565;20.453665;27.326314753865802;
0;07:01:56:316;-2.755726;11.988965;-0.5758055;12.31506630734471;
0;07:01:56:326;-0.46327803;2.1152773;10.600328;10.819241753767445;
0;07:01:56:337;4.1299977;13.978547;2.195483;14.74031240145143;
0;07:01:56:348;11.177331;9.883265;25.826254;29.826280268060685;
0;07:01:56:359;0.7026982;15.35641;6.7612257;16.793667935113035;
0;07:01:56:369;-20.324379;11.280281;15.885529;28.154487580107677;
0;07:01:56:380;0.89782566;-2.9604304;19.15481;19.403014965362825;
0;07:01:56:391;0.7433996;13.619416;21.56218;25.514089244964243;
0;07:01:56:400;-12.510901;10.585963;12.94066;20.881713518594594;
0;07:01:56:411;-2.1655555;6.6367273;9.527725;11.811576363112614;
0;07:01:56:421;-1.7250223;7.8158712;10.431537;13.148402684891519;
0;07:01:56:431;-0.1436521;6.254852;4.201824;7.536520225905223;
0;07:01:56:442;2.767697;11.857284;13.5535755;18.219624362594924;
0;07:01:56:452;-11.265916;7.165846;15.142129;20.187973158638442;
0;07:01:56:463;1.1061212;7.764396;7.487866;10.84331518175412;
0;07:01:56:473;0.15083471;11.560403;8.470686;14.332417185284793;
0;07:01:56:484;-2.8215668;5.5377884;3.2309752;7.004822840713757;
0;07:01:56:494;2.184709;6.7480574;8.163031;10.814079037066534;
0;07:01:56:505;-10.475829;6.279991;10.035296;15.807860647537133;
0;07:01:56:514;2.8287494;-0.6823475;23.609222;23.78787071111557;
0;07:01:56:525;1.8902222;1.6783354;19.43972;19.603378534098958;
0;07:01:56:536;-3.0992942;2.5019407;3.915717;5.585532177711624;
0;07:01:56:546;0.33039984;7.7093296;-1.8986019;7.946547510717336;
0;07:01:56:556;0.1412579;9.3026705;12.520478;15.598782203287087;
0;07:01:56:567;1.7226281;3.7936125;10.653001;11.438765992520374;
0;07:01:56:578;-6.525397;8.535329;8.256405;13.549939505241458;
0;07:01:56:588;-1.6496049;5.6108117;11.780669;13.152435982190713;
0;07:01:56:598;-6.517017;3.8367083;15.650896;17.382243670468185;
0;07:01:56:609;6.673837;1.3323733;13.490129;15.109563848031298;
0;07:01:56:620;-6.159084;5.969942;13.822924;16.267997282877296;
0;07:01:56:630;-2.2780828;3.4009635;8.89446;9.791201662966747;
0;07:01:56:641;-6.06571;4.7800236;9.688137;12.38957080950547;
0;07:01:56:651;-1.4209588;2.7808652;9.734824;10.223460007330413;
0;07:01:56:662;8.00621;6.215348;14.335282;17.55648842008365;
0;07:01:56:672;5.8226986;6.8689647;9.187749;12.864727774155387;
0;07:01:56:683;1.2880806;8.613141;12.0093155;14.834722789595384;
0;07:01:56:692;-2.267309;5.243302;11.228806;12.598372072686056;
0;07:01:56:703;1.7764976;4.0342298;13.195642;13.912438273742785;
0;07:01:56:713;-0.39983168;4.9284644;9.514558;10.722706767868246;
0;07:01:56:724;-6.0118403;3.1148565;19.005173;20.175260535995875;
0;07:01:56:735;-9.16261;-1.472434;4.176685;10.176746895160754;
0;07:01:56:746;-8.349778;2.5582044;9.728839;13.073389506306073;
0;07:01:56:757;0.60214174;0.6380547;8.67539;8.719638136608562;
0;07:01:56:768;3.845088;10.44231;14.541184;18.31045010391095;
0;07:01:56:779;-3.0095115;-1.1252748;3.7984009;4.975062936355994;
0;07:01:56:790;-5.7149596;1.033098;11.192893;12.60987355736815;
0;07:01:56:801;2.4169466;7.9714947;16.364368;18.36243159396295;
0;07:01:56:812;-2.019509;-3.181894;7.5932107;8.477011166841407;
0;07:01:56:823;-7.441179;3.7014358;8.408437;11.822588129842408;
0;07:01:56:833;-0.5303157;2.384625;13.038822;13.265690564104762;
0;07:01:56:844;-8.368932;4.960786;13.487736;16.63031700983647;
0;07:01:56:854;-0.44891283;2.7928362;5.5150437;6.1981581013134015;
0;07:01:56:865;-4.023456;0.31244332;7.3190746;8.357910940717707;
0;07:01:56:876;-1.1683705;4.959589;9.707291;10.96330730462592;
0;07:01:56:886;-1.8112136;6.1327477;11.844116;13.460095804902299;
0;07:01:56:897;-6.179435;1.2689269;7.1849995;9.561370583450996;
0;07:01:56:907;-7.2185183;2.7473464;8.318654;11.351428079038943;
0;07:01:56:918;-3.775656;0.33159694;17.287333;17.697949237879584;
0;07:01:56:928;-2.930503;3.3746274;10.1861315;11.123543976216407;
0;07:01:56:939;2.1811178;2.3259668;6.625953;7.353274917209109;
0;07:01:56:949;-7.631518;2.48159;8.335413;11.570543285595026;
0;07:01:56:960;-0.23343466;1.7046716;17.142485;17.22861470910885;
0;07:01:56:971;-7.8469963;2.6408045;7.551312;11.205869798651774;
0;07:01:56:981;-2.765303;-1.2797008;6.3350577;7.029757599863725;
0;07:01:56:992;1.9009962;4.5298295;16.152481;16.8830032020118;
0;07:01:57:003;-2.5953147;1.2066777;7.8613615;8.366166195839421;
0;07:01:57:014;8.3868885;6.405687;17.496826;20.433102009113636;
0;07:01:57:024;0.49081135;1.496376;5.6120086;5.8287801502158905;
0;07:01:57:034;-2.6132712;2.96881;5.2768207;6.5945324184966685;
0;07:01:57:045;0.25019407;4.501099;14.976929;15.640680608355192;
0;07:01:57:055;3.3147724;1.9656396;11.815386;12.427984690479663;
0;07:01:57:067;5.922058;4.1934443;25.122358;26.149352482497655;
0;07:01:57:078;11.414356;-2.541445;2.3343468;11.924581038114937;
0;07:01:57:088;5.535394;1.8902222;17.53992;18.48952042976389;
0;07:01:57:099;8.3821;4.71538;21.456835;23.513615985610336;
0;07:01:57:109;6.683414;-4.987122;23.992294;25.400189304397294;
0;07:01:57:119;14.932636;2.7353754;11.836933;19.250426448705785;
0;07:01:57:130;11.317391;2.8215668;3.594894;12.205238618373887;
0;07:01:57:140;3.6762967;-13.67568;13.412318;19.504606045301756;
0;07:01:57:151;13.10586;1.9632454;17.141287;21.66660077989782;
0;07:01:57:162;11.723208;-2.2840683;-2.695871;12.244112429431963;
0;07:01:57:172;11.935096;-2.5617957;6.2752028;13.725431930888481;
0;07:01:57:182;17.348385;5.911284;13.4183035;22.71476549051437;
0;07:01:57:193;13.455414;-4.2437224;-3.857059;14.62649137277733;
0;07:01:57:203;7.1143703;6.767211;8.439561;12.947416329121783;
0;07:01:57:214;-9.163807;-13.6409645;10.832565;19.68237160387754;
0;07:01:57:224;15.762227;-6.631939;-5.8226986;18.064723316885456;
0;07:01:57:235;13.781025;7.728483;-5.2516813;16.650112832176806;
0;07:01:57:245;-4.7141833;-14.899117;6.220136;16.819552279034884;
0;07:01:57:256;20.228611;3.2010477;14.802152;25.269489886830424;
0;07:01:57:266;-3.50152;1.8926164;12.50731;13.125373762349291;
0;07:01:57:277;9.736021;13.162124;11.054029;19.754067303945995;
0;07:01:57:287;5.7975593;-11.419145;11.676521;17.330601012235913;
0;07:01:57:298;14.05157;-1.0115502;-1.5574282;14.173759091269464;
0;07:01:57:308;1.0749966;14.283808;-0.82360536;14.347860973049366;
0;07:01:57:318;4.590882;-17.332823;13.778631;22.613129763376683;
0;07:01:57:329;6.4906807;-1.8195933;9.405622;11.571757801357633;
0;07:01:57:339;5.9507885;1.5023615;-7.303512;9.539930249485007;
0;07:01:57:349;10.266336;10.272323;17.380707;22.649662296564987;
0;07:01:57:359;32.880768;-0.94930094;26.306292;42.119674934661624;
0;07:01:57:369;11.446678;-7.902063;-5.149928;14.832086803622587;
0;07:01:57:380;-3.1387985;2.0374656;3.4524388;5.091429573861434;
0;07:01:57:391;2.5821466;-4.086902;6.655881;8.226238827618818;
0;07:01:57:401;4.4603977;-5.0601454;-13.136985;14.767552164249434;
0;07:01:57:412;-0.24301147;-1.839944;-9.631873;9.80904837967201;
0;07:01:57:422;20.728998;9.610326;10.976217;25.34811826564992;
0;07:01:57:432;2.469619;-5.9986725;14.5567465;15.936811125584034;
0;07:01:57:443;10.951078;-10.611102;6.956353;16.760442866116616;
0;07:01:57:453;-3.643975;1.258153;-17.232267;17.65821511464724;
0;07:01:57:464;18.015171;-13.0280485;12.612655;25.560819015634063;
0;07:01:57:474;4.6100354;-3.0885203;5.0134583;7.4783786652547555;
0;07:01:57:485;-16.393099;0.8714894;-21.648373;27.168828897688524;
0;07:01:57:496;1.0690111;-4.3502645;14.864401;15.524754107949816;
0;07:01:57:507;11.036073;0.8702923;22.38818;24.975646096732287;
0;07:01:57:517;-0.8391677;-5.1942205;11.676521;12.807235603887225;
0;07:01:57:528;15.419856;16.065094;8.791509;23.940548057815924;
0;07:01:57:538;-7.192182;-1.1492168;6.932411;10.055173113758721;
0;07:01:57:549;-12.455834;-6.918046;-9.800665;17.29335742941898;
0;07:01:57:560;23.803154;10.850522;12.419921;28.95821869825182;
0;07:01:57:570;29.496565;-2.5330653;24.193409;38.23329585726785;
0;07:01:57:581;20.070593;-1.4700398;-5.3354783;20.81963091051328;
0;07:01:57:592;15.289372;20.82716;8.900445;27.326789382742167;
0;07:01:57:603;20.186712;-7.1083846;23.027431;31.437160239838974;
0;07:01:57:612;-10.059238;-9.611523;13.432669;19.33924056383646;
0;07:01:57:623;0.89543146;22.246922;36.560658;42.80664592731922;
0;07:01:57:634;14.488512;-6.752846;-0.63206923;15.99741867223599;
0;07:01:57:644;17.396269;5.9843073;6.4763155;19.503454440365733;
0;07:01:57:655;-2.5474305;-6.0561333;17.16523;18.37964306772237;
0;07:01:57:666;12.548011;0.5303157;9.7084875;15.874146926667086;
0;07:01:57:677;-8.892065;5.9771247;10.117896;14.73657546698488;
0;07:01:57:687;1.2078748;-2.954445;12.841301;13.232034271306556;
0;07:01:57:698;6.5337763;1.2150574;14.727932;16.15792631384584;
0;07:01:57:709;2.3475149;0.2753332;3.3171666;4.073110486400268;
0;07:01:57:720;-16.245855;1.0139444;26.680984;31.25429267391721;
0;07:01:57:731;0.088585466;4.0581717;19.199104;19.623511774284154;
0;07:01:57:741;13.584701;-4.6662993;16.722301;22.044359740911478;
0;07:01:57:752;4.3598413;2.3391352;12.823344;13.744741648122485;
0;07:01:57:762;13.059174;-3.7229836;13.026852;18.817584899897323;
0;07:01:57:773;2.7832594;4.891354;8.950723;10.572952064993595;
0;07:01:57:784;6.373365;-0.11133038;13.333309;14.778677266853503;
0;07:01:57:795;8.506598;3.205836;15.4880905;17.958857671011714;
0;07:01:57:806;12.585121;1.0079589;1.2366052;12.685836006375933;
0;07:01:57:817;7.836222;1.3862427;2.5103204;8.34444490317885;
0;07:01:57:828;4.914099;-5.291186;10.052056;12.376948655958243;
0;07:01:57:838;9.259575;3.50152;12.047623;15.593126670595426;
0;07:01:57:849;8.603564;3.0370448;12.678495;15.620153545255045;
0;07:01:57:859;9.858126;-7.943961;2.2110453;12.852154360421506;
0;07:01:57:870;17.14847;-0.18195933;4.036624;17.618100378233176;
0;07:01:57:880;11.262324;7.064092;6.969521;15.010515214895243;
0;07:01:57:891;-7.9906483;-8.544906;25.131935;27.721471470121315;
0;07:01:57:901;11.251551;-1.0582372;12.021287;16.499350795111795;
0;07:01:57:911;1.7010803;7.091625;-2.4768016;7.701906676601459;
0;07:01:57:922;2.6013002;-3.8666358;7.884106;9.158426175906603;
0;07:01:57:932;24.842237;2.2397757;14.396335;28.799441607678133;
0;07:01:57:943;10.740389;4.1718965;2.9101522;11.884007942415328;
0;07:01:57:954;20.256144;-9.065644;7.0664864;23.29018022938396;
0;07:01:57:965;26.537333;9.077616;25.280376;37.75884784815756;
0;07:01:57:975;6.1387334;-6.113594;-11.040861;14.034268536670337;
0;07:01:57:986;10.499771;10.192117;15.507244;21.321328759216527;
0;07:01:57:997;24.15151;-0.6392518;33.390736;41.21462587167555;
0;07:01:58:007;7.0485296;-4.8039656;17.240646;19.235377715536938;
0;07:01:58:018;2.779668;-6.667852;-7.4806833;10.399395675707405;
0;07:01:58:028;20.898987;-9.49301;13.78701;26.776231115195714;
0;07:01:58:038;6.1890116;-2.861071;5.7987566;8.950707979810522;
0;07:01:58:049;-8.998607;-1.1815386;1.9847932;9.290337118185285;
0;07:01:58:059;24.46156;14.04319;9.077616;29.630764042366085;
0;07:01:58:070;36.367924;2.3702598;36.524742;51.59748812926846;
0;07:01:58:080;-3.145981;-10.758346;-9.123106;14.452344256784142;
0;07:01:58:091;-3.9121256;17.480066;1.3144168;17.960654596238708;
0;07:01:58:101;0.4321534;-20.470425;14.854824;25.296064301401216;
0;07:01:58:111;-2.3355439;-0.9923966;12.946646;13.193000116546475;
0;07:01:58:121;-0.58418524;18.018763;14.13417;22.90833625816566;
0;07:01:58:132;7.356185;11.859678;7.047333;15.634267271297096;
0;07:01:58:143;7.7224975;-1.8148049;18.776527;20.38353414782306;
0;07:01:58:154;2.7629087;3.8127663;-28.659792;29.044009785057767;
0;07:01:58:164;3.228581;10.370484;17.985243;21.010464921806676;
0;07:01:58:174;34.316093;-2.8670566;27.998991;44.38195230529733;
0;07:01:58:185;-10.498574;-6.7983356;0.029927522;12.507530690532379;
0;07:01:58:196;-2.9592333;8.549694;8.495825;12.411018127924867;
0;07:01:58:207;-7.751228;-21.036654;11.921927;25.392020394348915;
0;07:01:58:217;7.6746135;2.4229321;9.461885;12.421657574748101;
0;07:01:58:228;-11.699266;-0.8834604;-5.4061074;12.918178412457918;
0;07:01:58:238;-8.536526;-12.0332575;12.908339;19.6034882847336;
0;07:01:58:249;19.195513;3.1519666;12.09431;22.905783696652087;
0;07:01:58:259;0.9959879;1.2557588;4.796783;5.057474538349618;
0;07:01:58:270;12.702437;-17.998411;-5.3486466;22.669423702337333;
0;07:01:58:280;4.7644615;-9.175778;28.480227;30.298816982629454;
0;07:01:58:291;1.5969325;-9.872491;9.937134;14.098330005200859;
0;07:01:58:301;-8.248025;-11.286267;10.880449;17.714229161747962;
0;07:01:58:312;12.051214;-9.51336;25.670631;29.911822111847037;
0;07:01:58:323;-3.3243492;-0.34356794;2.3786395;4.102104688866189;
0;07:01:58:333;9.279925;9.358934;25.147497;28.39195786634615;
0;07:01:58:343;13.949816;-5.354632;9.94312;17.948122501207735;
0;07:01:58:354;1.2090719;-5.4312468;10.879252;12.219591662987607;
0;07:01:58:364;22.922087;11.939884;9.097966;27.399925554828727;
0;07:01:58:374;8.190564;-16.563087;13.603854;22.945284569696994;
0;07:01:58:385;13.101071;8.695741;23.754072;28.487012614440857;
0;07:01:58:395;2.4756045;-14.392743;-4.7788267;15.366094227442465;
0;07:01:58:406;5.8586116;-19.308039;25.81548;32.76526548145631;
0;07:01:58:416;-8.048109;-3.8965633;7.1347213;11.439384263547648;
0;07:01:58:427;7.4723034;-24.480713;2.3906105;25.70711286503151;
0;07:01:58:437;0.30645782;-17.21431;5.1080294;17.95879479661358;
0;07:01:58:448;-0.7074866;-19.950882;3.7337575;20.309583624774753;
0;07:01:58:458;9.522937;-4.197036;11.274296;15.34311551959563;
0;07:01:58:468;6.5960255;-10.611102;17.217901;21.2734375;
0;07:01:58:479;9.870096;-13.26268;11.724405;20.267687949163996;
0;07:01:58:489;3.015497;-8.423999;13.06875;15.83821999615122;
0;07:01:58:500;7.249643;-12.304999;6.4164605;15.656988739432585;
0;07:01:58:510;9.52174;-4.155137;20.985178;23.415943211503887;
0;07:01:58:521;-2.2780828;-13.605051;-2.2972364;13.984433375401904;
0;07:01:58:531;1.0642227;-6.169858;13.717579;15.078848549673292;
0;07:01:58:542;7.9595237;-1.4030021;12.449849;14.843220076889535;
0;07:01:58:552;7.4004774;-6.5265937;-3.095703;10.341511925075771;
0;07:01:58:563;4.6483426;-8.884883;-0.16160862;10.028676305959179;
0;07:01:58:573;6.777985;-1.2605472;5.577293;8.867708461430924;
0;07:01:58:584;3.004723;-7.548918;18.55985;20.260369553956576;
0;07:01:58:594;1.1575965;-15.552734;3.8151605;16.055622691740464;
0;07:01:58:604;-0.9864111;4.55856;-9.153033;10.272852288465215;
0;07:01:58:615;-2.2469583;-18.298883;9.97185;20.960337649821657;
0;07:01:58:626;4.3873744;-14.596251;6.1662664;16.441485599861977;
0;07:01:58:636;4.337096;-7.7943234;11.35091;14.436240137129715;
0;07:01:58:646;-5.052963;-15.474923;9.13388;18.666371933563024;
0;07:01:58:657;0.15442601;-10.740389;8.061277;13.429965865716;
0;07:01:58:668;7.229292;-9.721656;16.65287;20.59347807222782;
0;07:01:58:679;5.257667;-9.920375;13.672089;17.691323018820555;
0;07:01:58:690;0.9504981;-8.580819;7.8062944;11.639249866343272;
0;07:01:58:700;-6.465542;-2.693477;14.196419;15.830235121252642;
0;07:01:58:710;3.858256;-5.8143187;12.059594;13.932919694762585;
0;07:01:58:721;4.4460325;-9.933543;4.9057193;11.937694927441564;
0;07:01:58:731;5.4444146;-8.682572;5.8502316;11.80059052622275;
0;07:01:58:742;2.7449522;-9.010578;14.02284;16.892758667848074;
0;07:01:58:752;-4.156334;-4.52145;7.0808516;9.373210685365292;
0;07:01:58:763;-1.6699557;-8.250419;11.042058;13.884711089049249;
0;07:01:58:773;-0.8678981;-4.7656584;10.365696;11.441695647586165;
0;07:01:58:783;3.5063083;-6.027403;12.855666;14.625044863379372;
0;07:01:58:794;0.59855044;-2.8455088;8.641871;9.117956500077455;
0;07:01:58:804;-2.0362685;-8.471883;9.536105;12.917294263461958;
0;07:01:58:815;-3.1663318;-3.716998;8.780735;10.047041302812968;
0;07:01:58:826;1.8076223;-7.3166804;10.666168;13.060185715667844;
0;07:01:58:836;1.3850456;-4.993108;8.819042;10.228635526853566;
0;07:01:58:847;0.79248077;-6.540959;8.704121;10.916679401730008;
0;07:01:58:857;-1.0749966;-4.0019083;7.0221934;8.153654774494726;
0;07:01:58:867;1.602918;-4.7764325;12.200851;13.200167822493476;
0;07:01:58:878;-1.9859903;-4.629189;9.251195;10.533667946180506;
0;07:01:58:889;-1.8698715;-4.8722005;11.226412;12.380108636185307;
0;07:01:58:899;-0.16639702;-4.619612;11.751939;12.628403006714665;
0;07:01:58:910;1.4161704;-2.7736826;12.324153;12.711553913871956;
0;07:01:58:920;1.1659763;-3.608062;9.64145;10.36026867079963;
0;07:01:58:931;-0.8403648;-4.0940847;9.091981;10.006590769372133;
0;07:01:58:941;1.9812019;-3.2154129;8.664616;9.451962738467339;
0;07:01:58:952;1.0319009;-4.5058875;8.261193;9.466528301391946;
0;07:01:58:962;2.5306711;-4.6339774;10.6158905;11.856439802694647;
0;07:01:58:972;-1.4329298;-4.2042184;11.192893;12.041993098250817;
0;07:01:58:983;-1.9776106;-3.8630445;10.426748;11.293853735645262;
0;07:01:58:993;-0.8607155;-2.3355439;11.9135475;12.170793713003773;
0;07:01:59:003;2.2038627;-1.6927006;11.955446;12.274157312994674;
0;07:01:59:014;0.8631097;-2.7150247;11.729194;12.070224008575297;
0;07:01:59:024;-0.23463176;-1.4221559;11.35091;11.442059718023687;
0;07:01:59:035;2.2649148;-3.3063924;12.99453;13.598524776556934;
0;07:01:59:045;-0.076614454;-1.9057846;9.782708;9.966908443244355;
0;07:01:59:057;-1.6962919;-5.234922;10.614694;11.956317869114416;
0;07:01:59:067;-0.7721301;-3.7205894;9.883265;10.58857353019267;
0;07:01:59:077;-0.073023155;-3.192668;10.390836;10.870507375602454;
0;07:01:59:088;-0.32920274;-2.7365725;11.451467;11.778509737058274;
0;07:01:59:098;-0.16998832;-2.0099323;12.72997;12.888788339799985;
0;07:01:59:108;-0.4165911;-1.8626889;10.207679;10.38459756746421;
0;07:01:59:119;-0.5243302;-2.566584;10.684125;11.000581899337119;
0;07:01:59:130;0.8822633;-1.6579847;10.314221;10.483819028664184;
0;07:01:59:140;0.7541735;-1.8459295;8.846576;9.068524482599356;
0;07:01:59:151;-0.521936;-1.6005238;11.142614;11.269070208290255;
0;07:01:59:161;-1.1073183;-3.5290532;11.168951;11.765451214686;
0;07:01:59:172;0.48602295;-1.4041992;9.952697;10.063009877051922;
0;07:01:59:183;0.074220255;-1.9788077;9.006987;9.222092879076447;
0;07:01:59:193;-0.6332663;-2.4277205;8.86932;9.217357879527999;
0;07:01:59:203;0.8415619;-0.7457938;10.33936;10.400326987774793;
0;07:01:59:214;0.088585466;-2.3199813;9.829395;10.099859980755149;
0;07:01:59:224;0.41180268;-2.1296425;10.697293;10.914991488066782;
0;07:01:59:234;0.110133275;-3.309984;10.718841;11.218808824815312;
0;07:01:59:245;1.4544775;-1.8459295;9.555259;9.84001665315537;
0;07:01:59:256;0.9828198;0.8858546;10.751163;10.832274243352737;
0;07:01:59:267;-0.30286652;-1.8076223;10.608707;10.76586736619416;
0;07:01:59:277;0.3184288;-3.9959226;9.816227;10.603165035245299;
0;07:01:59:287;1.0043676;-0.89184016;11.700463;11.77730812080017;
0;07:01:59:298;0.49559975;-2.0099323;10.943896;11.137967213978857;
0;07:01:59:309;-0.1352724;-1.2186487;8.566454;8.653758437535384;
0;07:01:59:320;0.30765492;-1.13964;11.750742;11.809884563918732;
0;07:01:59:331;0.076614454;-1.2868834;10.783484;10.860270730818808;
0;07:01:59:342;0.21428105;0.48841715;9.174581;9.190070590639525;
0;07:01:59:352;0.7026982;-1.2354081;10.8948145;10.987128963867328;
0;07:01:59:363;0.90021986;-0.93852705;9.028535;9.121714379313433;
0;07:01:59:373;0.39624038;-0.59615624;11.04565;11.068819988595957;
0;07:01:59:384;-0.32800564;-1.1587936;10.448297;10.517475662511583;
0;07:01:59:394;0.748188;-1.4221559;9.712079;9.844124729350584;
0;07:01:59:406;0.19991584;-1.7848774;10.936713;11.083205678869142;
0;07:01:59:416;0.39863458;-0.7625532;9.969456;10.006519862484698;
0;07:01:59:426;0.5374983;-0.6871359;9.999383;10.037366481857344;
0;07:01:59:437;0.8499416;-0.7194576;9.386468;9.452290849689767;
0;07:01:59:448;0.2801216;-0.7757214;11.02889;11.059684438221865;
0;07:01:59:458;0.20949265;-2.4169466;10.545261;10.820723565070853;
0;07:01:59:468;0.2621651;-1.3706805;9.653421;9.753770539329224;
0;07:01:59:479;0.33279404;-1.5191209;10.31901;10.43553755351212;
0;07:01:59:489;0.16639702;-0.688333;10.143036;10.167726763711931;
0;07:01:59:500;0.5590461;-1.009156;10.760739;10.822404327357424;
0;07:01:59:510;0.45968673;-0.60812724;10.296265;10.324446722913406;
0;07:01:59:521;0.35194764;-0.51235914;10.152613;10.171623355782229;
0;07:01:59:532;0.2825158;-0.5422867;10.049662;10.068246657649848;
0;07:01:59:542;0.2645593;-0.6560113;10.280702;10.305006969436592;
0;07:01:59:553;0.08140286;-0.60333884;10.31901;10.336953503187038;
0;07:01:59:563;0.34117374;-0.5231331;10.2735195;10.292486201924046;
0;07:01:59:573;0.37469256;-0.5590461;10.241198;10.26328663198268;
0;07:01:59:583;0.22864626;-0.5626374;10.214862;10.232900358933403;
0;07:01:59:593;0.24420857;-0.50397944;10.225636;10.24095983298349;
0;07:01:59:604;0.25617957;-0.49799395;10.235212;10.250522135019628;
0;07:01:59:615;0.47405192;-0.2741361;10.119094;10.133900439137516;
0;07:01:59:626;0.4249708;-0.30885202;10.207679;10.221188875388576;
0;07:01:59:637;0.37469256;-0.18435353;10.420763;10.429126418662557;
0;07:01:59:648;0.33638534;-0.29448682;10.460267;10.469816876607132;
0;07:01:59:658;0.48841715;-0.14724341;10.320207;10.33280693272098;
0;07:01:59:669;0.44771573;-0.16759412;10.272323;10.283440724641098;
0;07:01:59:680;0.35194764;-0.11851298;10.222044;10.228787313498367;
0;07:01:59:691;0.31244332;-0.12569559;10.315418;10.320914240122002;
0;07:01:59:701;0.35434186;0.34117374;10.311827;10.32355216822762;
0;07:01:59:711;0.31364042;0.30406362;10.261548;10.270842040846862;
0;07:01:59:721;0.20350714;0.090979666;10.342952;10.345353754189192;
0;07:01:59:732;0.20231004;0.06464344;10.261548;10.263745651197738;
0;07:01:59:742;0.23223756;0.19393034;10.251971;10.256434956056246;
0;07:01:59:753;0.39983168;0.15203181;10.116699;10.12573842311173;
0;07:01:59:764;0.29448682;0.5351041;10.290278;10.308389480261106;
0;07:01:59:773;0.37229836;0.4213795;10.169372;10.184905113710828;
0;07:01:59:783;0.35913026;0.059855044;10.309433;10.315860085291794;
0;07:01:59:793;0.19273324;-0.25498247;10.358514;10.36344394778996;
0;07:01:59:803;0.22385786;-0.4297592;10.353725;10.3650582720696;
0;07:01:59:813;0.30885202;-0.36750996;10.366894;10.378002789290974;
0;07:01:59:823;0.33159694;-0.4321534;10.104729;10.119400171287829;
0;07:01:59:833;0.31124622;-0.48602295;10.263943;10.2801561324438;
0;07:01:59:844;0.35673606;-0.50158525;10.290278;10.30866998006108;
0;07:01:59:855;0.415394;-0.49799395;10.278308;10.298745710425509;
0;07:01:59:865;0.34117374;-0.48003745;10.212467;10.229433966496012;
0;07:01:59:876;0.33399114;-0.5291186;10.260351;10.279412473521104;
0;07:01:59:887;0.272939;-0.5243302;10.298658;10.315608625332542;
0;07:01:59:898;0.30526072;-0.46686932;10.213664;10.2288846496946;
0;07:01:59:908;0.29328972;-0.47405192;10.213664;10.228864884181805;
0;07:01:59:919;0.31483752;-0.49799395;10.245986;10.262911596187134;
0;07:01:59:929;0.32920274;-0.48482585;10.263943;10.280658925234885;
0;07:01:59:940;0.32561144;-0.47046062;10.250774;10.26672933319915;
0;07:01:59:951;0.35673606;-0.4261679;10.279505;10.294517791408065;
0;07:01:59:961;0.34117374;-0.4357447;10.26514;10.280047036148702;
0;07:01:59:972;0.30166942;-0.39264908;10.301053;10.31294684164491;
0;07:01:59:982;0.34356794;-0.1340753;10.263943;10.270566450653302;
0;07:01:59:992;0.3172317;-0.093373865;10.243592;10.2489284792677;
0;07:02:00:003;0.34476504;-0.01436521;10.198102;10.2039381465555;
0;07:02:00:014;0.36152446;-0.010773907;10.26514;10.271509443601753;
0;07:02:00:025;0.2908955;-0.09935937;10.260351;10.264954613289365;
0;07:02:00:035;0.33758244;-0.25019407;10.268731;10.277324448860629;
0;07:02:00:045;0.29448682;-0.40222588;10.229227;10.241366588478774;
0;07:02:00:056;0.32920274;-0.48722005;10.257957;10.274796799926758;
0;07:02:00:066;0.35314476;-0.4345476;10.250774;10.266056789102148;
0;07:02:00:077;0.3172317;-0.44891283;10.262746;10.277456586704785;
0;07:02:00:087;0.34955344;-0.47046062;10.278308;10.2950054318014;
0;07:02:00:098;0.32561144;-0.46926352;10.243592;10.259503680562933;
0;07:02:00:108;0.31483752;-0.45968673;10.234015;10.249170781530786;
0;07:02:00:119;0.320823;-0.40701428;10.248381;10.26147600053095;
0;07:02:00:129;0.30645782;-0.3184288;10.307038;10.316508675774195;
0;07:02:00:140;0.32202014;-0.23582886;10.280702;10.288446661405688;
0;07:02:00:150;0.34835634;-0.21068975;10.240001;10.248090240462373;
0;07:02:00:160;0.32321724;-0.23702596;10.2495775;10.257411603218989;
0;07:02:00:170;0.33399114;-0.25378537;10.235212;10.243804547930957;
0;07:02:00:180;0.33039984;-0.33758244;10.236409;10.24730218879279;
0;07:02:00:190;0.32800564;-0.34715924;10.2495775;10.26069901492595;
0;07:02:00:200;0.32920274;-0.40342298;10.284293;10.297466255312365;
0;07:02:00:210;0.30406362;-0.39145198;10.255563;10.267534098785674;
0;07:02:00:220;0.31244332;-0.4165911;10.255563;10.268774934112683;
0;07:02:00:230;0.32202014;-0.4201824;10.279505;10.29312737069429;
0;07:02:00:241;0.32920274;-0.34955344;10.244789;10.256035493215004;
0;07:02:00:252;0.33279404;-0.32920274;10.225636;10.236344335812865;
0;07:02:00:263;0.34835634;-0.29927522;10.251971;10.26225255558683;
0;07:02:00:273;0.33159694;-0.28491;10.232818;10.242152489690353;
0;07:02:00:283;0.31483752;-0.31004912;10.232818;10.24235361111484;
0;07:02:00:293;0.320823;-0.30406362;10.267534;10.277044207080037;
0;07:02:00:303;0.33279404;-0.34117374;10.247183;10.258260236325254;
0;07:02:00:314;0.3196259;-0.35673606;10.248381;10.259567633547904;
0;07:02:00:324;0.34117374;-0.35793316;10.254366;10.266281594655473;
0;07:02:00:335;0.34356794;-0.36990416;10.238804;10.25124258557663;
0;07:02:00:345;0.32800564;-0.36750996;10.262746;10.274561042412362;
0;07:02:00:356;0.31483752;-0.35673606;10.269928;10.28094389207585;
0;07:02:00:366;0.33039984;-0.33758244;10.244789;10.255673210853224;
0;07:02:00:377;0.33877954;-0.31244332;10.277111;10.287439216814281;
0;07:02:00:387;0.33518824;-0.30645782;10.234015;10.24408793331301;
0;07:02:00:398;0.3172317;-0.31004912;10.229227;10.238840494669939;
0;07:02:00:408;0.32561144;-0.34237084;10.260351;10.271224215009621;
0;07:02:00:418;0.3172317;-0.35553896;10.251971;10.263038344208185;
0;07:02:00:429;0.33159694;-0.36272156;10.25676;10.268526779042555;
0;07:02:00:440;0.34356794;-0.35434186;10.236409;10.248300923273323;
0;07:02:00:450;0.31364042;-0.35553896;10.2735195;10.284453382862763;
0;07:02:00:461;0.33039984;-0.34237084;10.275913;10.28692229307055;
0;07:02:00:471;0.32561144;-0.33758244;10.281899;10.29259146011556;
0;07:02:00:481;0.33399114;-0.32321724;10.271125;10.281635126477862;
0;07:02:00:491;0.32561144;-0.31124622;10.242394;10.252294516189032;
0;07:02:00:501;0.31244332;-0.33159694;10.248381;10.258503061889721;
0;07:02:00:511;0.320823;-0.32321724;10.254366;10.264473721354017;
0;07:02:00:521;0.33039984;-0.33518824;10.263943;10.274727743955182;
0;07:02:00:532;0.33638534;-0.35314476;10.275913;10.28748074758033;
0;07:02:00:543;0.34356794;-0.36391866;10.274716;10.28689781827509;
0;07:02:00:553;0.32920274;-0.34356794;10.260351;10.271378343422585;
0;07:02:00:564;0.33279404;-0.33997664;10.279505;10.290507963078577;
0;07:02:00:575;0.33159694;-0.35793316;10.253169;10.264772516211467;
0;07:02:00:585;0.34237084;-0.34835634;10.230424;10.242077254364713;
0;07:02:00:595;0.33638534;-0.34955344;10.257957;10.269422412294126;
0;07:02:00:605;0.31603462;-0.33518824;10.243592;10.253946056470353;
0;07:02:00:615;0.35434186;-0.32202014;10.271125;10.282278826871753;
0;07:02:00:625;0.33518824;-0.35194764;10.230424;10.241962538051942;
0;07:02:00:635;0.32920274;-0.35075054;10.220847;10.232160721817722;
0;07:02:00:646;0.33518824;-0.34237084;10.253169;10.264358140413261;
0;07:02:00:656;0.3196259;-0.33518824;10.245986;10.25644908946584;
0;07:02:00:667;0.3184288;-0.33997664;10.231621;10.242218785707367;
0;07:02:00:677;0.33877954;-0.34117374;10.230424;10.241715968121733;
0;07:02:00:688;0.32441434;-0.34835634;10.2495775;10.26062540271231;
0;07:02:00:698;0.33638534;-0.33518824;10.257957;10.268943586980022;
0;07:02:00:708;0.32680854;-0.33758244;10.228029;10.238815532367958;
0;07:02:00:718;0.32680854;-0.35673606;10.269928;10.28131715700426;
0;07:02:00:729;0.33399114;-0.33279404;10.250774;10.261612059899317;
0;07:02:00:739;0.33159694;-0.33758244;10.267534;10.2784323498199;
0;07:02:00:749;0.3184288;-0.34835634;10.244789;10.255654612850705;
0;07:02:00:760;0.3184288;-0.32920274;10.222044;10.232299407849391;
0;07:02:00:771;0.32321724;-0.33159694;10.275913;10.28634118637144;
0;07:02:00:781;0.32202014;-0.33758244;10.238804;10.249427593344466;
0;07:02:00:791;0.33159694;-0.34237084;10.266336;10.277394600905176;
0;07:02:00:802;0.31364042;-0.34356794;10.25676;10.267303747582282;
0;07:02:00:812;0.3172317;-0.34835634;10.262746;10.273555206668851;
0;07:02:00:823;0.32920274;-0.32321724;10.2735195;10.2838732494732;
0;07:02:00:833;0.33638534;-0.33279404;10.260351;10.271256526458885;
0;07:02:00:843;0.32561144;-0.34476504;10.226832;10.237821461680703;
0;07:02:00:854;0.32680854;-0.34955344;10.272323;10.283462610982955;
0;07:02:00:865;0.32680854;-0.33758244;10.267534;10.278279069468915;
0;07:02:00:875;0.34835634;-0.32441434;10.2974615;10.308457940678911;
0;07:02:00:886;0.33758244;-0.34596214;10.281899;10.293255229054083;
0;07:02:00:896;0.33279404;-0.32680854;10.242394;10.253009261361965;
0;07:02:00:906;0.33159694;-0.34596214;10.243592;10.254795348358677;
0;07:02:00:917;0.3184288;-0.34476504;10.286688;10.297388460500327;
0;07:02:00:926;0.33518824;-0.34715924;10.279505;10.290825648571492;
0;07:02:00:936;0.33638534;-0.33997664;10.259154;10.270296053087584;
0;07:02:00:946;0.34237084;-0.34955344;10.275913;10.287555280052532;
0;07:02:00:956;0.3196259;-0.33758244;10.254366;10.264898869629011;
0;07:02:00:966;0.33758244;-0.35075054;10.280702;10.29222082790262;
0;07:02:00:976;0.32680854;-0.34835634;10.267534;10.278638699418497;
0;07:02:00:986;0.32920274;-0.33399114;10.238804;10.24953813210072;
0;07:02:00:997;0.33039984;-0.32800564;10.253169;10.263733757841512;
0;07:02:01:007;0.33877954;-0.34596214;10.262746;10.2741622843194;
0;07:02:01:018;0.33159694;-0.34476504;10.242394;10.25355877387441;
0;07:02:01:028;0.33638534;-0.32321724;10.289082;10.299651308546164;
0;07:02:01:038;0.33518824;-0.33997664;10.267534;10.278627936682122;
0;07:02:01:050;0.32920274;-0.34356794;10.255563;10.266595199468327;
0;07:02:01:060;0.31483752;-0.35553896;10.247183;10.258181400449656;
0;07:02:01:070;0.33877954;-0.33279404;10.241198;10.252202239364767;
0;07:02:01:081;0.34237084;-0.34237084;10.241198;10.252636826185176;
0;07:02:01:092;0.33638534;-0.33877954;10.284293;10.295368553260293;
0;07:02:01:103;0.33159694;-0.35434186;10.2495775;10.261060004550806;
0;07:02:01:113;0.31483752;-0.34835634;10.25676;10.267501775622069;
0;07:02:01:124;0.34356794;-0.35434186;10.250774;10.262649546194579;
0;07:02:01:134;0.33758244;-0.34476504;10.254366;10.265712325422909;
0;07:02:01:144;0.32441434;-0.34596214;10.231621;10.242607241947383;
0;07:02:01:155;0.32920274;-0.33279404;10.262746;10.273415963618111;
0;07:02:01:166;0.31244332;-0.33039984;10.240001;10.250092668812233;
0;07:02:01:176;0.32321724;-0.36870706;10.231621;10.243362883071988;
0;07:02:01:187;0.32441434;-0.36032736;10.242394;10.253863839198008;
0;07:02:01:197;0.34237084;-0.33758244;10.235212;10.246499557108669;
0;07:02:01:207;0.32800564;-0.33159694;10.259154;10.269751150650587;
0;07:02:01:217;0.32800564;-0.35673606;10.259154;10.270593564302208;
0;07:02:01:228;0.33758244;-0.32441434;10.269928;10.280594732395485;
0;07:02:01:239;0.34476504;-0.35913026;10.261548;10.27361721563342;
0;07:02:01:249;0.34117374;-0.34835634;10.257957;10.269539793525354;
0;07:02:01:260;0.33399114;-0.33039984;10.250774;10.261534365016475;
0;07:02:01:270;0.32800564;-0.33518824;10.253169;10.263889113721442;
0;07:02:01:281;0.320823;-0.33638534;10.263943;10.274463396377257;
0;07:02:01:292;0.3196259;-0.33638534;10.287885;10.298343814174268;
0;07:02:01:303;0.33758244;-0.31244332;10.267534;10.277832576387967;
0;07:02:01:313;0.35075054;-0.33279404;10.26514;10.276520449967185;
0;07:02:01:323;0.32321724;-0.34237084;10.238804;10.249624105864733;
0;07:02:01:334;0.32561144;-0.34356794;10.231621;10.24256441192448;
0;07:02:01:345;0.32680854;-0.33518824;10.235212;10.245912806970733;
0;07:02:01:355;0.34117374;-0.3172317;10.272323;10.28288130877012;
0;07:02:01:366;0.35075054;-0.33758244;10.243592;10.255153197990648;
0;07:02:01:377;0.32321724;-0.34596214;10.247183;10.258114463853268;
0;07:02:01:389;0.33039984;-0.34596214;10.242394;10.253560262019969;
0;07:02:01:398;0.31483752;-0.34476504;10.290278;10.300864944436249;
0;07:02:01:408;0.33279404;-0.33758244;10.26514;10.27607944879226;
0;07:02:01:418;0.33279404;-0.34715924;10.2735195;10.284769029930786;
0;07:02:01:429;0.33758244;-0.35314476;10.230424;10.242082096258743;
0;07:02:01:440;0.33279404;-0.34596214;10.235212;10.24646344465048;
0;07:02:01:451;0.34476504;-0.34356794;10.200497;10.212102285085804;
0;07:02:01:462;0.32441434;-0.33638534;10.261548;10.272184230233767;
0;07:02:01:472;0.32202014;-0.33399114;10.241198;10.251701027751558;
0;07:02:01:483;0.30765492;-0.34715924;10.290278;10.300728292549687;
0;07:02:01:493;0.31244332;-0.34117374;10.269928;10.28034240983619;
0;07:02:01:504;0.32441434;-0.33877954;10.277111;10.2878096504934;
0;07:02:01:514;0.32800564;-0.34356794;10.244789;10.25579484095817;
0;07:02:01:525;0.31603462;-0.34715924;10.2495775;10.260323512756592;
0;07:02:01:536;0.34596214;-0.36272156;10.236409;10.248674632657348;
0;07:02:01:546;0.31124622;-0.35314476;10.230424;10.241248139369949;
0;07:02:01:557;0.33518824;-0.35434186;10.230424;10.24204485086112;
0;07:02:01:567;0.32800564;-0.34835634;10.266336;10.27748071281314;
0;07:02:01:577;0.34476504;-0.33638534;10.267534;10.278826488798048;
0;07:02:01:589;0.33997664;-0.35075054;10.242394;10.254036085487533;
0;07:02:01:600;0.32441434;-0.34955344;10.241198;10.252295260353593;
0;07:02:01:610;0.33518824;-0.34596214;10.2495775;10.260890850334608;
0;07:02:01:621;0.33039984;-0.33518824;10.261548;10.272335744748224;
0;07:02:01:631;0.320823;-0.32321724;10.243592;10.253710563608943;
0;07:02:01:642;0.33877954;-0.33399114;10.315418;10.326382257704125;
0;07:02:01:652;0.34476504;-0.33279404;10.263943;10.275122025036712;
0;07:02:01:663;0.33877954;-0.35194764;10.274716;10.286322643817607;
0;07:02:01:673;0.32202014;-0.36032736;10.274716;10.286074541231628;
0;07:02:01:684;0.33997664;-0.36272156;10.268731;10.280758367686019;
0;07:02:01:694;0.33279404;-0.34955344;10.244789;10.256151539889593;
0;07:02:01:705;0.32561144;-0.32920274;10.257957;10.268402327759956;
0;07:02:01:715;0.31364042;-0.35075054;10.269928;10.280701225499566;
0;07:02:01:726;0.34715924;-0.32680854;10.260351;10.271422910243459;
0;07:02:01:736;0.31603462;-0.33518824;10.242394;10.252749562736398;
0;07:02:01:747;0.33399114;-0.35314476;10.247183;10.258704234611805;
0;07:02:01:757;0.31603462;-0.34596214;10.254366;10.26506647132129;
0;07:02:01:768;0.32800564;-0.33518824;10.275913;10.2866093079638;
0;07:02:01:778;0.32561144;-0.32441434;10.253169;10.263466525360109;
0;07:02:01:789;0.32561144;-0.34955344;10.248381;10.259508514232701;
0;07:02:01:800;0.32561144;-0.34955344;10.248381;10.259508514232701;
0;07:02:01:811;0.32800564;-0.34237084;10.269928;10.280867085384566;
0;07:02:01:821;0.32441434;-0.32920274;10.226832;10.237271104426577;
0;07:02:01:831;0.32680854;-0.34476504;10.240001;10.2510137289296;
0;07:02:01:842;0.32561144;-0.34596214;10.245986;10.25699507048612;
0;07:02:01:852;0.32561144;-0.33518824;10.245986;10.256637285116282;
0;07:02:01:863;0.34835634;-0.34237084;10.235212;10.24686030241112;
0;07:02:01:873;0.31603462;-0.32800564;10.263943;10.274044213311052;
0;07:02:01:883;0.33399114;-0.33039984;10.277111;10.287843393038576;
0;07:02:01:893;0.32321724;-0.32680854;10.254366;10.26466251314621;
0;07:02:01:904;0.32202014;-0.32680854;10.255563;10.26582045927886;
0;07:02:01:915;0.33758244;-0.33518824;10.247183;10.258219330993729;
0;07:02:01:926;0.32321724;-0.34117374;10.243592;10.254367549147426;
0;07:02:01:937;0.320823;-0.34476504;10.257957;10.268762675095838;
0;07:02:01:948;0.33399114;-0.33518824;10.245986;10.256906555101208;
0;07:02:01:959;0.33039984;-0.33758244;10.238804;10.249694447498904;
0;07:02:01:969;0.3196259;-0.32441434;10.229227;10.239359845775004;
0;07:02:01:980;0.32441434;-0.34117374;10.244789;10.255600678452671;
0;07:02:01:991;0.32800564;-0.33518824;10.260351;10.271063399043351;
0;07:02:02:002;0.33399114;-0.33399114;10.291476;10.30230949212758;
0;07:02:02:012;0.32920274;-0.33039984;10.274716;10.285296817663621;
0;07:02:02:022;0.33399114;-0.32680854;10.263943;10.274574037061896;
0;07:02:02:032;0.33159694;-0.33997664;10.237606;10.24861545050568;
0;07:02:02:042;0.33039984;-0.32202014;10.277111;10.287461836270152;
0;07:02:02:052;0.32800564;-0.34237084;10.263943;10.274888131305364;
0;07:02:02:063;0.30765492;-0.33997664;10.255563;10.265807453548884;
0;07:02:02:073;0.33877954;-0.34356794;10.237606;10.248970166086544;
0;07:02:02:083;0.3172317;-0.34955344;10.280702;10.291532899139103;
0;07:02:02:094;0.30765492;-0.32441434;10.250774;10.26052018837899;
0;07:02:02:103;0.33638534;-0.32561144;10.287885;10.298531244239356;
0;07:02:02:114;0.32321724;-0.32321724;10.281899;10.292054780342092;
0;07:02:02:124;0.32680854;-0.36152446;10.21127;10.222893204528326;
0;07:02:02:135;0.34476504;-0.34955344;10.274716;10.286439832195915;
0;07:02:02:145;0.34955344;-0.32920274;10.271125;10.28234226720741;
0;07:02:02:156;0.33279404;-0.33279404;10.268731;10.279510814738805;
0;07:02:02:166;0.33279404;-0.34237084;10.251971;10.263083318936166;
0;07:02:02:177;0.32561144;-0.35314476;10.298658;10.309854433972724;
0;07:02:02:187;0.35075054;-0.33518824;10.259154;10.27061919220592;
0;07:02:02:198;0.34476504;-0.33638534;10.237606;10.248931456903241;
0;07:02:02:208;0.34237084;-0.36152446;10.263943;10.276012628781409;
0;07:02:02:219;0.33399114;-0.35434186;10.269928;10.28146519769085;
0;07:02:02:230;0.33159694;-0.36032736;10.269928;10.281595798231086;
0;07:02:02:241;0.33159694;-0.35434186;10.224439;10.235949306396794;
0;07:02:02:252;0.33279404;-0.34955344;10.261548;10.272892021521487;
0;07:02:02:263;0.32800564;-0.33518824;10.291476;10.302156196750566;
0;07:02:02:273;0.3184288;-0.35194764;10.248381;10.259364990452587;
0;07:02:02:283;0.32202014;-0.34476504;10.281899;10.292716360164638;
0;07:02:02:294;0.32561144;-0.34715924;10.2735195;10.2845390647522;
0;07:02:02:304;0.33039984;-0.33758244;10.245986;10.256868991618761;
0;07:02:02:315;0.3184288;-0.33638534;10.236409;10.246883756000376;
0;07:02:02:326;0.31124622;-0.32202014;10.277111;10.286864443460164;
0;07:02:02:336;0.34117374;-0.34476504;10.26514;10.27659246351303;
0;07:02:02:347;0.3184288;-0.33039984;10.268731;10.278978647636846;
0;07:02:02:357;0.320823;-0.33877954;10.287885;10.298459384103777;
0;07:02:02:368;0.33877954;-0.34237084;10.25676;10.268062400898721;
0;07:02:02:378;0.33997664;-0.33399114;10.250774;10.26184737143412;
0;07:02:02:389;0.33399114;-0.33997664;10.263943;10.275001366236983;
0;07:02:02:400;0.320823;-0.33638534;10.274716;10.285225977735537;
0;07:02:02:410;0.33039984;-0.33039984;10.263943;10.274572923235437;
0;07:02:02:421;0.32321724;-0.3196259;10.274716;10.284766433578437;
0;07:02:02:431;0.33518824;-0.3196259;10.254366;10.264820084739446;
0;07:02:02:442;0.32202014;-0.33159694;10.245986;10.256407061111736;
0;07:02:02:453;0.33518824;-0.34955344;10.250774;10.262207948940846;
0;07:02:02:462;0.35673606;-0.34955344;10.25676;10.268912754173737;
0;07:02:02:473;0.33039984;-0.35434186;10.21127;10.222757376147692;
0;07:02:02:483;0.34117374;-0.34715924;10.253169;10.26471602829818;
0;07:02:02:493;0.33039984;-0.33877954;10.2974615;10.308329160705396;
0;07:02:02:504;0.31004912;-0.35194764;10.245986;10.256716504782252;
0;07:02:02:515;0.30166942;-0.32321724;10.21965;10.229209469914796;
0;07:02:02:525;0.31483752;-0.32561144;10.260351;10.270343224604126;
0;07:02:02:536;0.34596214;-0.37229836;10.259154;10.271734872575346;
0;07:02:02:547;0.34117374;-0.33039984;10.253169;10.26416302493969;
0;07:02:02:557;0.33758244;-0.34356794;10.247183;10.258496740316962;
0;07:02:02:568;0.32920274;-0.34476504;10.26514;10.276201951017017;
0;07:02:02:579;0.32920274;-0.33279404;10.21127;10.221994240839976;
0;07:02:02:589;0.33638534;-0.34715924;10.244789;10.256187246294536;
0;07:02:02:600;0.34117374;-0.3196259;10.248381;10.259038150310742;
0;07:02:02:610;0.32441434;-0.33039984;10.254366;10.26481525357088;
0;07:02:02:620;0.33518824;-0.35194764;10.235212;10.246745639646438;
0;07:02:02:631;0.33399114;-0.33877954;10.267534;10.278549257025603;
0;07:02:02:641;0.3196259;-0.32680854;10.278308;10.288468166324503;
0;07:02:02:652;0.32321724;-0.3172317;10.263943;10.27392948263517;
0;07:02:02:662;0.33399114;-0.35075054;10.2495775;10.261014277422328;
0;07:02:02:673;0.34356794;-0.33997664;10.236409;10.247814038414143;
0;07:02:02:682;0.30526072;-0.33877954;10.267534;10.2776559037781;
0;07:02:02:693;0.33159694;-0.32561144;10.250774;10.26130387912787;
0;07:02:02:703;0.32441434;-0.34356794;10.25676;10.267638498193723;
0;07:02:02:714;0.32800564;-0.33638534;10.242394;10.25316477973939;
0;07:02:02:724;0.33758244;-0.34237084;10.255563;10.266827424347218;
0;07:02:02:734;0.32800564;-0.32800564;10.232818;10.243326014739464;
0;07:02:02:745;0.32920274;-0.33877954;10.228029;10.238931774211268;
0;07:02:02:754;0.32680854;-0.34835634;10.236409;10.247547507547042;
0;07:02:02:765;0.33518824;-0.36391866;10.230424;10.242380799448826;
0;07:02:02:775;0.33039984;-0.34117374;10.253169;10.26416302493969;
0;07:02:02:786;0.3196259;-0.34715924;10.262746;10.273588996031279;
0;07:02:02:795;0.32920274;-0.34955344;10.25676;10.267992928122451;
0;07:02:02:805;0.30885202;-0.35194764;10.25676;10.26744233045783;
0;07:02:02:816;0.32441434;-0.33997664;10.254366;10.265127788329876;
0;07:02:02:826;0.3184288;-0.35314476;10.26514;10.276147010805914;
0;07:02:02:836;0.31364042;-0.33279404;10.250774;10.260969665393281;
0;07:02:02:846;0.32800564;-0.33997664;10.225636;10.236542217459185;
0;07:02:02:856;0.33399114;-0.33997664;10.255563;10.26663049798845;
0;07:02:02:867;0.32680854;-0.34237084;10.287885;10.298766453032206;
0;07:02:02:878;0.32680854;-0.34955344;10.253169;10.264329895355253;
0;07:02:02:888;0.33159694;-0.34715924;10.243592;10.254835895357987;
0;07:02:02:898;0.33399114;-0.34476504;10.228029;10.239286825259923;
0;07:02:02:909;0.33399114;-0.35075054;10.25676;10.268188342326805;
0;07:02:02:919;0.32202014;-0.35434186;10.2495775;10.260755153178374;
0;07:02:02:929;0.32800564;-0.34835634;10.257957;10.269110751185673;
0;07:02:02:939;0.33518824;-0.3196259;10.244789;10.255252887764016;
0;07:02:02:949;0.32321724;-0.32920274;10.26514;10.275501812563705;
0;07:02:02:959;0.31244332;-0.34356794;10.244789;10.255309055828908;
0;07:02:02:970;0.30526072;-0.33638534;10.243592;10.253658851182138;
0;07:02:02:981;0.320823;-0.32920274;10.201694;10.21204475872961;
0;07:02:02:992;0.33279404;-0.33399114;10.247183;10.258024098755302;
0;07:02:03:003;0.31364042;-0.34237084;10.257957;10.268460652877213;
0;07:02:03:013;0.32441434;-0.34596214;10.25676;10.267719119074261;
0;07:02:03:024;0.34356794;-0.34237084;10.231621;10.243111133029542;
0;07:02:03:034;0.33039984;-0.35194764;10.2495775;10.26093918039521;
0;07:02:03:044;0.32920274;-0.33638534;10.253169;10.263966419120438;
0;07:02:03:055;0.32920274;-0.35075054;10.245986;10.25727214101792;
0;07:02:03:065;0.33518824;-0.32680854;10.225636;10.236345826461035;
0;07:02:03:076;0.32561144;-0.32920274;10.218452;10.228937606163274;
0;07:02:03:086;0.3196259;-0.35673606;10.266336;10.277504096525652;
0;07:02:03:096;0.320823;-0.34955344;10.245986;10.256965689413638;
0;07:02:03:107;0.32920274;-0.34117374;10.271125;10.282061049174203;
0;07:02:03:118;0.32321724;-0.32321724;10.254366;10.264548792521886;
0;07:02:03:128;0.33399114;-0.34835634;10.283096;10.294414776272497;
0;07:02:03:138;0.32561144;-0.34117374;10.278308;10.28912219100472;
0;07:02:03:149;0.31483752;-0.34356794;10.238804;10.24940340120177;
0;07:02:03:160;0.34955344;-0.33039984;10.247183;10.258465132394738;
0;07:02:03:170;0.34955344;-0.33159694;10.272323;10.28361618502073;
0;07:02:03:181;0.33039984;-0.33638534;10.280702;10.291508435308375;
0;07:02:03:191;0.320823;-0.35194764;10.278308;10.289334628851964;
0;07:02:03:202;0.320823;-0.35075054;10.267534;10.27853144268013;
0;07:02:03:212;0.3196259;-0.33159694;10.236409;10.246764998385046;
0;07:02:03:223;0.320823;-0.36272156;10.250774;10.262206090326389;
0;07:02:03:232;0.32441434;-0.34835634;10.268731;10.279758333564285;
0;07:02:03:243;0.34476504;-0.34117374;10.236409;10.24789407077094;
0;07:02:03:253;0.33997664;-0.33279404;10.257957;10.26898370663755;
0;07:02:03:263;0.320823;-0.33039984;10.253169;10.263506666427263;
0;07:02:03:273;0.33758244;-0.32202014;10.268731;10.279323780068818;
0;07:02:03:284;0.33279404;-0.34955344;10.261548;10.272892021521487;
0;07:02:03:294;0.34356794;-0.34476504;10.261548;10.273084743230806;
0;07:02:03:305;0.34237084;-0.33997664;10.261548;10.272885337466699;
0;07:02:03:314;0.33039984;-0.34356794;10.244789;10.255871835416636;
0;07:02:03:325;0.32321724;-0.33997664;10.262746;10.27346126423107;
0;07:02:03:336;0.33039984;-0.33997664;10.266336;10.277276567031457;
0;07:02:03:347;0.33039984;-0.32202014;10.248381;10.25876038378012;
0;07:02:03:357;0.34596214;-0.32680854;10.260351;10.271382428722548;
0;07:02:03:368;0.36272156;-0.34237084;10.272323;10.28442519299416;
0;07:02:03:379;0.33039984;-0.34596214;10.244789;10.255952176843987;
0;07:02:03:389;0.32920274;-0.33997664;10.242394;10.253321783938143;
0;07:02:03:400;0.32920274;-0.33518824;10.283096;10.293823345689669;
0;07:02:03:410;0.33518824;-0.33279404;10.266336;10.277196763487098;
0;07:02:03:420;0.32561144;-0.33399114;10.230424;10.241052211107265;
0;07:02:03:431;0.32920274;-0.35194764;10.224439;10.235789426950474;
0;07:02:03:442;0.33758244;-0.32800564;10.231621;10.242441879826368;
0;07:02:03:452;0.320823;-0.33039984;10.284293;10.294599313446545;
0;07:02:03:462;0.32800564;-0.33399114;10.253169;10.263850089140222;
0;07:02:03:473;0.32920274;-0.3196259;10.272323;10.282565232767224;
0;07:02:03:484;0.32680854;-0.32680854;10.241198;10.251621025114913;
0;07:02:03:494;0.33039984;-0.34476504;10.261548;10.272652878188852;
0;07:02:03:505;0.32800564;-0.33518824;10.243592;10.25432216418399;
0;07:02:03:516;0.32800564;-0.32680854;10.267534;10.277969161534259;
0;07:02:03:527;0.320823;-0.34117374;10.248381;10.25907570585084;
0;07:02:03:537;0.33997664;-0.33279404;10.243592;10.254633902753048;
0;07:02:03:547;0.31603462;-0.33638534;10.244789;10.25518109634577;
0;07:02:03:557;0.33399114;-0.35075054;10.255563;10.266992765259676;
0;07:02:03:568;0.32202014;-0.33518824;10.245986;10.256523847440002;
0;07:02:03:578;0.32920274;-0.33399114;10.250774;10.261496074977437;
0;07:02:03:589;0.32920274;-0.33638534;10.247183;10.257986167489326;
0;07:02:03:599;0.34117374;-0.32920274;10.2495775;10.260536918645473;
0;07:02:03:610;0.32800564;-0.34117374;10.248381;10.259302523517034;
0;07:02:03:620;0.32441434;-0.34117374;10.222044;10.23287948281253;
0;07:02:03:630;0.32920274;-0.31124622;10.229227;10.23925441292564;
0;07:02:03:641;0.31124622;-0.32321724;10.2495775;10.259395108303474;
0;07:02:03:651;0.33877954;-0.33039984;10.269928;10.280824785802313;
0;07:02:03:661;0.32680854;-0.32441434;10.2495775;10.259916765198858;
0;07:02:03:672;0.34715924;-0.33758244;10.25676;10.268183884249527;
0;07:02:03:683;0.31483752;-0.33279404;10.204087;10.214366100806677;
0;07:02:03:694;0.33039984;-0.32441434;10.2735195;10.283949291838685;
0;07:02:03:705;0.3196259;-0.34237084;10.220847;10.231573149390474;
0;07:02:03:716;0.34356794;-0.33159694;10.240001;10.251127227580152;
0;07:02:03:726;0.33159694;-0.33399114;10.271125;10.281901886746995;
0;07:02:03:737;0.34596214;-0.33039984;10.241198;10.252364467421726;
0;07:02:03:747;0.32800564;-0.32920274;10.261548;10.272065765122798;
0;07:02:03:758;0.34237084;-0.33997664;10.278308;10.289626770072022;
0;07:02:03:768;0.33279404;-0.32800564;10.277111;10.287728074652259;
0;07:02:03:778;0.33279404;-0.33518824;10.25676;10.267629953086331;
0;07:02:03:788;0.34237084;-0.31244332;10.259154;10.269619285116194;
0;07:02:03:799;0.33159694;-0.33279404;10.269928;10.28066783056823;
0;07:02:03:810;0.320823;-0.3172317;10.25676;10.266678057907853;
0;07:02:03:821;0.33039984;-0.32321724;10.254366;10.264777347400148;
0;07:02:03:831;0.33518824;-0.33518824;10.266336;10.277274339964206;
0;07:02:03:843;0.33279404;-0.34237084;10.254366;10.26547561606492;
0;07:02:03:854;0.33399114;-0.32561144;10.269928;10.28051532566963;
0;07:02:03:865;0.33399114;-0.33758244;10.232818;10.243830615244871;
0;07:02:03:876;0.32680854;-0.34955344;10.235212;10.246392708538828;
0;07:02:03:887;0.34835634;-0.32800564;10.228029;10.239214921896936;
0;07:02:03:898;0.35194764;-0.34356794;10.253169;10.264959072769116;
0;07:02:03:909;0.3196259;-0.320823;10.244789;10.254793488400734;
0;07:02:03:919;0.32202014;-0.32920274;10.260351;10.270680476064195;
0;07:02:03:929;0.33159694;-0.33997664;10.216059;10.22709142659102;
0;07:02:03:940;0.34237084;-0.32561144;10.254366;10.265245590282221;
0;07:02:03:951;0.33758244;-0.33039984;10.257957;10.26882768486668;
0;07:02:03:962;0.34715924;-0.35673606;10.234015;10.246113854583783;
0;07:02:03:972;0.3196259;-0.33399114;10.272323;10.28271993315158;
0;07:02:03:982;0.32680854;-0.33399114;10.250774;10.26141949447073;
0;07:02:03:993;0.34835634;-0.34955344;10.234015;10.245906849944244;
0;07:02:04:004;0.320823;-0.36152446;10.245986;10.25738073574855;
0;07:02:04:014;0.33159694;-0.33159694;10.263943;10.27464977697784;
0;07:02:04:024;0.32561144;-0.36272156;10.241198;10.252790489890538;
0;07:02:04:034;0.32680854;-0.33997664;10.243592;10.254441578287894;
0;07:02:04:044;0.30166942;-0.34835634;10.238804;10.24916892055213;
0;07:02:04:054;0.32680854;-0.35434186;10.283096;10.294388466486282;
0;07:02:04:065;0.32321724;-0.32561144;10.250774;10.261036583364115;
0;07:02:04:076;0.3196259;-0.33399114;10.254366;10.264781435327254;
0;07:02:04:085;0.32920274;-0.34596214;10.251971;10.263088150920009;
0;07:02:04:096;0.320823;-0.35314476;10.257957;10.26904722910808;
0;07:02:04:107;0.33638534;-0.32800564;10.230424;10.241206793603743;
0;07:02:04:117;0.33399114;-0.35913026;10.287885;10.299567604247892;
0;07:02:04:127;0.31483752;-0.32680854;10.278308;10.288320597184422;
0;07:02:04:138;0.33159694;-0.34715924;10.2735195;10.284730455485558;
0;07:02:04:148;0.32800564;-0.34476504;10.232818;10.243876419078642;
0;07:02:04:158;0.32561144;-0.32800564;10.25676;10.267167392096235;
0;07:02:04:169;0.32920274;-0.32680854;10.242394;10.252893551182272;
0;07:02:04:179;0.33039984;-0.35075054;10.251971;10.263289233768875;
0;07:02:04:190;0.32321724;-0.34955344;10.268731;10.27976130226965;
0;07:02:04:201;0.34715924;-0.34596214;10.283096;10.294769766531859;
0;07:02:04:212;0.3196259;-0.33518824;10.245986;10.25644908946584;
0;07:02:04:222;0.32800564;-0.32800564;10.238804;10.24930625986919;
0;07:02:04:233;0.35075054;-0.33279404;10.230424;10.241843350911465;
0;07:02:04:243;0.33758244;-0.34596214;10.280702;10.29205885743481;
0;07:02:04:253;0.31364042;-0.34955344;10.277111;10.287835977104072;
0;07:02:04:264;0.320823;-0.34237084;10.257957;10.268682433896895;
0;07:02:04:274;0.33399114;-0.33279404;10.251971;10.262807520395361;
0;07:02:04:284;0.32561144;-0.35314476;10.267534;10.278764140135484;
0;07:02:04:294;0.32321724;-0.36032736;10.26514;10.276546063090283;
0;07:02:04:304;0.32920274;-0.36032736;10.250774;10.26238711779422;
0;07:02:04:315;0.33997664;-0.33279404;10.230424;10.241479821566163;
0;07:02:04:326;0.32202014;-0.34117374;10.261548;10.272266672232046;
0;07:02:04:336;0.31364042;-0.35075054;10.250774;10.261567822215174;
0;07:02:04:347;0.35314476;-0.33997664;10.229227;10.24096579288759;
0;07:02:04:357;0.33997664;-0.35793316;10.234015;10.2459146685408;
0;07:02:04:368;0.34237084;-0.34117374;10.261548;10.272925070395146;
0;07:02:04:378;0.32920274;-0.34596214;10.250774;10.261892723116052;
0;07:02:04:389;0.33039984;-0.34237084;10.253169;10.264202791632378;
0;07:02:04:399;0.32920274;-0.33638534;10.232818;10.24363622596404;
0;07:02:04:410;0.32202014;-0.33877954;10.268731;10.279363117008202;
0;07:02:04:420;0.33039984;-0.35314476;10.245986;10.257393008368403;
0;07:02:04:431;0.33758244;-0.33399114;10.251971;10.262963633687237;
0;07:02:04:442;0.33159694;-0.3196259;10.235212;10.245569527668486;
0;07:02:04:452;0.35553896;-0.33039984;10.216059;10.227581908821858;
0;07:02:04:463;0.33638534;-0.320823;10.278308;10.28881409272081;
0;07:02:04:473;0.33039984;-0.33159694;10.301053;10.311683576228933;
0;07:02:04:484;0.32680854;-0.32680854;10.248381;10.258796824797754;
0;07:02:04:494;0.320823;-0.32321724;10.248381;10.258494137315283;
0;07:02:04:504;0.33877954;-0.31244332;10.235212;10.245582931414502;
0;07:02:04:515;0.33518824;-0.31483752;10.280702;10.290981336830807;
0;07:02:04:525;0.31244332;-0.32561144;10.253169;10.26309521304615;
0;07:02:04:536;0.32441434;-0.32920274;10.257957;10.268364434831085;
0;07:02:04:546;0.3184288;-0.31004912;10.25676;10.266384148942233;
0;07:02:04:557;0.32680854;-0.32561144;10.236409;10.246799620653285;
0;07:02:04:568;0.33399114;-0.33159694;10.257957;10.268748558634066;
0;07:02:04:579;0.320823;-0.33399114;10.230424;10.240900978744268;
0;07:02:04:590;0.33279404;-0.32441434;10.280702;10.291201149815167;
0;07:02:04:601;0.33638534;-0.31603462;10.247183;10.257572261324269;
0;07:02:04:611;0.32441434;-0.30166942;10.2735195;10.283066423889569;
0;07:02:04:622;0.33159694;-0.32202014;10.217256;10.227705737879074;
0;07:02:04:633;0.3196259;-0.33399114;10.25676;10.267172593701133;
0;07:02:04:643;0.3196259;-0.32441434;10.231621;10.241751352388915;
0;07:02:04:654;0.34356794;-0.32800564;10.255563;10.266556928304123;
0;07:02:04:664;0.32680854;-0.3196259;10.25676;10.26694111973253;
0;07:02:04:675;0.32561144;-0.33997664;10.236409;10.247227735808902;
0;07:02:04:686;0.32441434;-0.33518824;10.247183;10.257794649641742;
0;07:02:04:697;0.32680854;-0.32800564;10.266336;10.27677286636593;
0;07:02:04:707;0.32800564;-0.35553896;10.279505;10.290880139730175;
0;07:02:04:718;0.32321724;-0.33877954;10.242394;10.253091485486982;
0;07:02:04:728;0.32441434;-0.35314476;10.262746;10.273943220680062;
0;07:02:04:738;0.32920274;-0.33758244;10.271125;10.28194232685125;
0;07:02:04:749;0.33638534;-0.32202014;10.269928;10.280480074823727;
0;07:02:04:759;0.33279404;-0.32800564;10.253169;10.263811064410625;
0;07:02:04:769;0.33279404;-0.32321724;10.2495775;10.260071063474125;
0;07:02:04:779;0.320823;-0.32800564;10.28549;10.295718693966583;
0;07:02:04:789;0.33997664;-0.33997664;10.269928;10.281176534929395;
0;07:02:04:799;0.33638534;-0.32920274;10.223241;10.234069726482417;
0;07:02:04:809;0.33877954;-0.34237084;10.263943;10.275237484899984;
0;07:02:04:819;0.33758244;-0.33997664;10.255563;10.266747911140044;
0;07:02:04:830;0.33997664;-0.33159694;10.245986;10.256986516511677;
0;07:02:04:839;0.33877954;-0.33279404;10.241198;10.252202239364767;
0;07:02:04:849;0.33518824;-0.34835634;10.2495775;10.26097189599934;
0;07:02:04:859;0.31364042;-0.32920274;10.28549;10.29553528841507;
0;07:02:04:869;0.33279404;-0.34117374;10.253169;10.264240328275715;
0;07:02:04:879;0.33399114;-0.32561144;10.226832;10.237464496704693;
0;07:02:04:889;0.33159694;-0.3196259;10.2735195;10.283838010137558;
0;07:02:04:899;0.3172317;-0.33997664;10.254366;10.264903329132979;
0;07:02:04:909;0.32202014;-0.3196259;10.248381;10.258419021839414;
0;07:02:04:919;0.320823;-0.32561144;10.231621;10.24182696257118;
0;07:02:04:929;0.34117374;-0.32920274;10.260351;10.27129886544544;
0;07:02:04:940;0.34117374;-0.32441434;10.241198;10.252012846022946;
0;07:02:04:950;0.32561144;-0.33039984;10.226832;10.23734786557538;
0;07:02:04:960;0.32561144;-0.32920274;10.274716;10.285144010508288;
0;07:02:04:971;0.32800564;-0.33039984;10.253169;10.263733757841512;
0;07:02:04:981;0.33877954;-0.34356794;10.271125;10.28245171014125;
0;07:02:04:992;0.32920274;-0.32441434;10.260351;10.270755501865555;
0;07:02:05:002;0.33159694;-0.33518824;10.272323;10.283137649660974;
0;07:02:05:013;0.31483752;-0.34356794;10.224439;10.235052980286783;
0;07:02:05:023;0.32920274;-0.34237084;10.259154;10.270143022739243;
0;07:02:05:034;0.32920274;-0.32920274;10.241198;10.251774331944935;
0;07:02:05:044;0.31244332;-0.33638534;10.244789;10.255070990396234;
0;07:02:05:055;0.3196259;-0.31004912;10.284293;10.293928960785918;
0;07:02:05:066;0.30765492;-0.33159694;10.269928;10.279884502786254;
0;07:02:05:076;0.32561144;-0.33758244;10.257957;10.268674632635777;
0;07:02:05:087;0.32680854;-0.34835634;10.272323;10.283422176857297;
0;07:02:05:097;0.34117374;-0.33518824;10.278308;10.289429909323777;
0;07:02:05:108;0.34596214;-0.33159694;10.263943;10.275123510059267;
0;07:02:05:119;0.3196259;-0.32920274;10.213664;10.22396521520294;
0;07:02:05:129;0.33638534;-0.3184288;10.226832;10.23731693760893;
0;07:02:05:140;0.30645782;-0.33399114;10.242394;10.252419907155419;
0;07:02:05:150;0.3172317;-0.35434186;10.241198;10.25223498284909;
0;07:02:05:161;0.32561144;-0.33399114;10.234015;10.24463978615864;
0;07:02:05:171;0.32321724;-0.34476504;10.259154;10.270033077197867;
0;07:02:05:181;0.320823;-0.32920274;10.229227;10.23955021824079;
0;07:02:05:192;0.33399114;-0.320823;10.259154;10.269601826735421;
0;07:02:05:202;0.32680854;-0.33399114;10.237606;10.248264817162724;
0;07:02:05:213;0.31603462;-0.33159694;10.250774;10.261004239732703;
0;07:02:05:224;0.35434186;-0.32202014;10.236409;10.247601112077211;
0;07:02:05:234;0.33758244;-0.33997664;10.262746;10.27392317055433;
0;07:02:05:245;0.32800564;-0.33638534;10.242394;10.25316477973939;
0;07:02:05:256;0.33279404;-0.32680854;10.257957;10.268556127035682;
0;07:02:05:267;0.30765492;-0.34476504;10.267534;10.277926478871024;
0;07:02:05:278;0.33159694;-0.33638534;10.237606;10.248497085177066;
0;07:02:05:289;0.33399114;-0.35913026;10.261548;10.273261123129496;
0;07:02:05:299;0.33279404;-0.33758244;10.274716;10.28564581772556;
0;07:02:05:310;0.33159694;-0.32680854;10.2495775;10.260146166855245;
0;07:02:05:320;0.3172317;-0.34237084;10.250774;10.261395330599994;
0;07:02:05:331;0.33758244;-0.32920274;10.26514;10.27596362716397;
0;07:02:05:340;0.33279404;-0.34237084;10.263943;10.275041833500037;
0;07:02:05:350;0.33399114;-0.33399114;10.241198;10.252083915447386;
0;07:02:05:361;0.34117374;-0.35075054;10.280702;10.292339431662876;
0;07:02:05:371;0.32202014;-0.35673606;10.228029;10.239313276629108;
0;07:02:05:382;0.33638534;-0.3172317;10.232818;10.243258608657117;
0;07:02:05:392;0.33758244;-0.32561144;10.263943;10.274653489704463;
0;07:02:05:403;0.34356794;-0.33399114;10.237606;10.24881309522424;
0;07:02:05:413;0.31124622;-0.35194764;10.262746;10.273494682588007;
0;07:02:05:424;0.31364042;-0.33997664;10.231621;10.242070922653678;
0;07:02:05:435;0.32920274;-0.33399114;10.236409;10.247145836901824;
0;07:02:05:446;0.31603462;-0.34476504;10.271125;10.28176757993834;
0;07:02:05:457;0.32680854;-0.33877954;10.232818;10.243638460344547;
0;07:02:05:468;0.32920274;-0.33518824;10.26514;10.275885298335652;
0;07:02:05:479;0.33279404;-0.33997664;10.263943;10.274962383860395;
0;07:02:05:489;0.33279404;-0.34237084;10.260351;10.271454106903017;
0;07:02:05:500;0.35075054;-0.33997664;10.236409;10.248057483735218;
0;07:02:05:511;0.33518824;-0.33039984;10.271125;10.281902257757848;
0;07:02:05:521;0.32800564;-0.33877954;10.2735195;10.284335800926131;
0;07:02:05:532;0.32680854;-0.34715924;10.247183;10.258268789237592;
0;07:02:05:542;0.33039984;-0.37110126;10.241198;10.253243654187143;
0;07:02:05:553;0.33039984;-0.33997664;10.280702;10.291626305957887;
0;07:02:05:563;0.33758244;-0.35434186;10.271125;10.282777806078457;
0;07:02:05:574;0.33877954;-0.33159694;10.244789;10.255751322095522;
0;07:02:05:584;0.33159694;-0.33399114;10.260351;10.271139536246544;
0;07:02:05:595;0.34356794;-0.33279404;10.224439;10.235620973177102;
0;07:02:05:606;0.3172317;-0.34715924;10.250774;10.2615559263348;
0;07:02:05:616;0.32680854;-0.33638534;10.226832;10.237580753888235;
0;07:02:05:627;0.32561144;-0.33997664;10.245986;10.256794608079282;
0;07:02:05:638;0.32680854;-0.34117374;10.235212;10.246110503822559;
0;07:02:05:648;0.32800564;-0.32561144;10.223241;10.233682809965359;
0;07:02:05:659;0.32920274;-0.33279404;10.237606;10.248302412182369;
0;07:02:05:670;0.33997664;-0.35673606;10.25676;10.268591047323287;
0;07:02:05:680;0.33518824;-0.33758244;10.255563;10.26659036913508;
0;07:02:05:691;0.32680854;-0.33638534;10.235212;10.245951899871121;
0;07:02:05:701;0.32441434;-0.33399114;10.2495775;10.260148025842854;
0;07:02:05:711;0.34476504;-0.36152446;10.248381;10.260549187490222;
0;07:02:05:722;0.33159694;-0.35673606;10.240001;10.251577116425718;
0;07:02:05:732;0.31603462;-0.33039984;10.255563;10.265749484952035;
0;07:02:05:743;0.33279404;-0.33159694;10.21965;10.230443021516903;
0;07:02:05:754;0.3196259;-0.33997664;10.295067;10.305636624694001;
0;07:02:05:764;0.33039984;-0.33159694;10.241198;10.251890054756938;
0;07:02:05:774;0.33877954;-0.33399114;10.238804;10.249850016171159;
0;07:02:05:785;0.31603462;-0.33159694;10.247183;10.257416065978115;
0;07:02:05:794;0.33039984;-0.34596214;10.259154;10.27030162453783;
0;07:02:05:805;0.33159694;-0.35194764;10.248381;10.259782170591551;
0;07:02:05:815;0.32920274;-0.34356794;10.260351;10.271378343422585;
0;07:02:05:826;0.31244332;-0.32920274;10.263943;10.273972553200917;
0;07:02:05:837;0.32800564;-0.33997664;10.262746;10.273613131222119;
0;07:02:05:847;0.33877954;-0.33758244;10.25676;10.267904136028914;
0;07:02:05:858;0.33159694;-0.33638534;10.237606;10.248497085177066;
0;07:02:05:867;0.3184288;-0.34476504;10.283096;10.293800740212491;
0;07:02:05:877;0.34955344;-0.33279404;10.255563;10.266913253333001;
0;07:02:05:888;0.30286652;-0.34237084;10.255563;10.265744654220855;
0;07:02:05:898;0.33997664;-0.35075054;10.268731;10.280342780903323;
0;07:02:05:909;0.34356794;-0.33159694;10.254366;10.265477102482942;
0;07:02:05:920;0.32202014;-0.33039984;10.232818;10.243213174472906;
0;07:02:05:930;0.33039984;-0.33039984;10.228029;10.238696681170113;
0;07:02:05:941;0.3172317;-0.33159694;10.2735195;10.283763821667812;
0;07:02:05:951;0.34237084;-0.34237084;10.277111;10.288510434482205;
0;07:02:05:962;0.3196259;-0.34117374;10.21127;10.221966625095696;
0;07:02:05:973;0.32920274;-0.35075054;10.250774;10.262055169709056;
0;07:02:05:983;0.33877954;-0.33638534;10.279505;10.290585439208044;
0;07:02:05:993;0.31603462;-0.33159694;10.242394;10.252632733415773;
0;07:02:06:004;0.30885202;-0.32800564;10.245986;10.255886713506221;
0;07:02:06:014;0.30765492;-0.34476504;10.240001;10.25042091063654;
0;07:02:06:025;0.32800564;-0.31364042;10.242394;10.252443720103354;
0;07:02:06:036;0.3172317;-0.36152446;10.216059;10.227374902079971;
0;07:02:06:046;0.32561144;-0.32441434;10.255563;10.265857618416572;
0;07:02:06:057;0.33399114;-0.33997664;10.274716;10.285763384686707;
0;07:02:06:067;0.33039984;-0.33997664;10.240001;10.250968701247938;
0;07:02:06:077;0.32920274;-0.33399114;10.263943;10.274650519523272;
0;07:02:06:088;0.32441434;-0.33518824;10.251971;10.262578178228793;
0;07:02:06:099;0.34117374;-0.34596214;10.269928;10.281415851032165;
0;07:02:06:110;0.33758244;-0.33638534;10.266336;10.277392002689842;
0;07:02:06:121;0.34356794;-0.32680854;10.237606;10.248581578805986;
0;07:02:06:132;0.34356794;-0.34237084;10.255563;10.267026204671065;
0;07:02:06:142;0.33638534;-0.34356794;10.247183;10.258457323363656;
0;07:02:06:152;0.35434186;-0.33399114;10.286688;10.298206387986712;
0;07:02:06:162;0.33279404;-0.34237084;10.274716;10.285803809608932;
0;07:02:06:172;0.33039984;-0.33159694;10.234015;10.244715375023084;
0;07:02:06:182;0.32321724;-0.34955344;10.244789;10.255845054800991;
0;07:02:06:193;0.35194764;-0.34356794;10.248381;10.260175910616585;
0;07:02:06:204;0.33758244;-0.35434186;10.278308;10.289953009347045;
0;07:02:06:214;0.31244332;-0.33997664;10.242394;10.25279718704566;
0;07:02:06:225;0.32202014;-0.35913026;10.255563;10.266900248987337;
0;07:02:06:236;0.31244332;-0.34237084;10.260351;10.270814927853902;
0;07:02:06:247;0.34117374;-0.33638534;10.266336;10.277510406407215;
0;07:02:06:257;0.34715924;-0.33638534;10.237606;10.249012224937292;
0;07:02:06:268;0.32561144;-0.33758244;10.261548;10.272261473206656;
0;07:02:06:278;0.33758244;-0.34715924;10.25676;10.268183884249527;
0;07:02:06:289;0.33399114;-0.32680854;10.262746;10.273378460500508;
0;07:02:06:299;0.31603462;-0.33758244;10.262746;10.273158637493792;
0;07:02:06:309;0.29688102;-0.35314476;10.243592;10.25397656225893;
0;07:02:06:320;0.33518824;-0.33159694;10.260351;10.27117853313205;
0;07:02:06:331;0.33758244;-0.32321724;10.255563;10.266206536158641;
0;07:02:06:342;0.33877954;-0.34117374;10.25676;10.268022649153787;
0;07:02:06:351;0.34237084;-0.33518824;10.275913;10.287077298756238;
0;07:02:06:362;0.3196259;-0.34955344;10.269928;10.280844822468232;
0;07:02:06:373;0.3184288;-0.32680854;10.280702;10.29082231236873;
0;07:02:06:384;0.31483752;-0.32441434;10.281899;10.29183276167264;
0;07:02:06:394;0.31603462;-0.33758244;10.231621;10.242065335846574;
0;07:02:06:404;0.3196259;-0.3184288;10.2974615;10.30734068383578;
0;07:02:06:415;0.32920274;-0.35194764;10.250774;10.262096059750696;
0;07:02:06:425;0.32321724;-0.34356794;10.280702;10.291517701917765;
0;07:02:06:436;0.31244332;-0.32800564;10.286688;10.296657531016322;
0;07:02:06:446;0.32680854;-0.32441434;10.26514;10.275463203329023;
0;07:02:06:458;0.31603462;-0.33758244;10.269928;10.28033350422095;
0;07:02:06:468;0.32800564;-0.31004912;10.25676;10.266685860686092;
0;07:02:06:479;0.32441434;-0.3172317;10.278308;10.288318372507824;
0;07:02:06:490;0.3196259;-0.33518824;10.240001;10.250469662210529;
0;07:02:06:500;0.32441434;-0.32920274;10.263943;10.274343472410415;
0;07:02:06:511;0.33159694;-0.34356794;10.251971;10.263084805700668;
0;07:02:06:521;0.32441434;-0.31124622;10.262746;10.272588263972876;
0;07:02:06:532;0.33518824;-0.3196259;10.245986;10.25644908946584;
0;07:02:06:543;0.31603462;-0.320823;10.240001;10.249898398291222;
0;07:02:06:553;0.32561144;-0.31004912;10.255563;10.26541392952721;
0;07:02:06:563;0.31124622;-0.33279404;10.225636;10.235782718667368;
0;07:02:06:573;0.33997664;-0.33997664;10.238804;10.250086714214948;
0;07:02:06:584;0.33039984;-0.33877954;10.247183;10.258103679582996;
0;07:02:06:594;0.33877954;-0.31124622;10.2735195;10.283815011769176;
0;07:02:06:605;0.32680854;-0.34356794;10.243592;10.254561363001276;
0;07:02:06:615;0.33279404;-0.33039984;10.217256;10.228011947272778;
0;07:02:06:625;0.34476504;-0.33039984;10.274716;10.285806776569443;
0;07:02:06:636;0.33638534;-0.35194764;10.2735195;10.285048690332001;
0;07:02:06:646;0.32321724;-0.33758244;10.271125;10.281752368283108;
0;07:02:06:657;0.32321724;-0.32920274;10.226832;10.237233468895768;
0;07:02:06:666;0.35194764;-0.32920274;10.242394;10.25372544483452;
0;07:02:06:677;0.32202014;-0.33279404;10.262746;10.27318834358038;
0;07:02:06:687;0.320823;-0.32561144;10.250774;10.26096148650025;
0;07:02:06:697;0.3172317;-0.33399114;10.254366;10.26470710912556;
0;07:02:06:708;0.32680854;-0.33399114;10.251971;10.26261497739813;
0;07:02:06:717;0.34835634;-0.34955344;10.243592;10.255472722608166;
0;07:02:06:728;0.32800564;-0.34117374;10.232818;10.243756137029125;
0;07:02:06:738;0.33638534;-0.32680854;10.237606;10.248342984870622;
0;07:02:06:748;0.32680854;-0.33877954;10.231621;10.242442997146954;
0;07:02:06:758;0.30885202;-0.35553896;10.248381;10.259195808288899;
0;07:02:06:769;0.32800564;-0.33997664;10.28549;10.29633335662848;
0;07:02:06:779;0.33877954;-0.33518824;10.220847;10.231951570779513;
0;07:02:06:789;0.3184288;-0.33758244;10.212467;10.223005895935884;
0;07:02:06:800;0.33279404;-0.32800564;10.254366;10.265006640432581;
0;07:02:06:811;0.33399114;-0.31364042;10.290278;10.300473500451137;
0;07:02:06:821;0.32920274;-0.33279404;10.267534;10.278199273708337;
0;07:02:06:831;0.34237084;-0.34237084;10.257957;10.269378208254855;
0;07:02:06:842;0.33279404;-0.34117374;10.263943;10.275002108757008;
0;07:02:06:852;0.33279404;-0.35194764;10.261548;10.272973715173066;
0;07:02:06:862;0.34237084;-0.33159694;10.220847;10.231954180533602;
0;07:02:06:872;0.33159694;-0.33877954;10.259154;10.270101050424845;
0;07:02:06:882;0.34237084;-0.33279404;10.255563;10.26667099824624;
0;07:02:06:892;0.32800564;-0.30885202;10.2735195;10.283393613204813;
0;07:02:06:902;0.32202014;-0.33518824;10.244789;10.255328026430334;
0;07:02:06:912;0.32202014;-0.33997664;10.248381;10.259073474832496;
0;07:02:06:922;0.33159694;-0.32920274;10.286688;10.297294735493828;
0;07:02:06:933;0.32321724;-0.34715924;10.277111;10.28805140782352;
0;07:02:06:943;0.34476504;-0.33997664;10.29387;10.305251284686237;
0;07:02:06:953;0.3196259;-0.33997664;10.247183;10.257801715412267;
0;07:02:06:963;0.33039984;-0.34955344;10.230424;10.241724907316561;
0;07:02:06:973;0.30645782;-0.32680854;10.261548;10.27132374880348;
0;07:02:06:984;0.31603462;-0.33877954;10.272323;10.282765563755703;
0;07:02:06:995;0.33758244;-0.33039984;10.254366;10.265240016087818;
0;07:02:07:005;0.33159694;-0.3196259;10.235212;10.245569527668486;
0;07:02:07:015;0.32561144;-0.34835634;10.251971;10.263054326985332;
0;07:02:07:026;0.31124622;-0.33997664;10.275913;10.28624550643491;
0;07:02:07:037;0.33638534;-0.34237084;10.262746;10.273963270766666;
0;07:02:07:048;0.32202014;-0.35194764;10.289082;10.300133891300197;
0;07:02:07:058;0.32561144;-0.320823;10.262746;10.272920985708655;
0;07:02:07:068;0.3196259;-0.32680854;10.247183;10.257373669688034;
0;07:02:07:079;0.33039984;-0.32680854;10.360908;10.371324370670322;
0;07:02:07:089;-1.673547;-0.9792285;17.134104;17.243467116653918;
0;07:02:07:099;1.5502456;-0.50996494;5.729325;5.957221436513196;
0;07:02:07:109;-0.50158525;-0.6823475;13.548787;13.575227592906822;
0;07:02:07:119;0.12210429;0.39504328;9.299079;9.308267130626284;
0;07:02:07:129;0.2693477;-0.45489833;11.716026;11.727947562481694;
0;07:02:07:139;0.7218518;-0.35913026;9.866506;9.899392820292022;
