Round;Timestamp;AccX;AccY;
0;12:11:21:066;1.365892;5.4049106;
0;12:11:21:076;-1.0283096;4.9823337;
0;12:11:21:086;-2.7353754;4.187459;
0;12:11:21:096;3.9336734;1.3587095;
0;12:11:21:106;2.5115175;5.436035;
0;12:11:21:117;-2.2062569;0.545878;
0;12:11:21:127;-2.5258827;6.8689647;
0;12:11:21:137;-2.0003555;3.5194764;
0;12:11:21:147;-2.03148;5.993884;
0;12:11:21:158;5.378574;4.0797195;
0;12:11:21:168;5.45878;5.9400144;
0;12:11:21:179;6.3218894;3.4009635;
0;12:11:21:188;-1.8064252;7.574057;
0;12:11:21:199;-0.24301147;3.0597897;
0;12:11:21:209;-8.224083;2.1978772;
0;12:11:21:220;-1.9069817;2.6072857;
0;12:11:21:231;-0.17118542;8.069656;
0;12:11:21:242;0.4249708;1.8064252;
0;12:11:21:253;3.7816415;6.706159;
0;12:11:21:264;6.254852;4.1838675;
0;12:11:21:274;-1.496376;1.7705121;
0;12:11:21:285;2.5007436;4.0521865;
0;12:11:21:294;1.4137762;4.6938324;
0;12:11:21:305;3.9240966;-1.5011644;
0;12:11:21:316;1.3335704;5.207389;
0;12:11:21:326;-8.221688;10.199299;
0;12:11:21:336;2.0254946;3.0585926;
0;12:11:21:346;-7.1227503;8.765172;
0;12:11:21:356;0.6452374;-5.8801594;
0;12:11:21:366;0.31364042;-3.3865983;
0;12:11:21:376;1.5406688;0.20949265;
0;12:11:21:387;-3.5326445;1.958457;
0;12:11:21:398;4.3023806;7.2628107;
0;12:11:21:409;-0.30047232;4.2999864;
0;12:11:21:420;-1.4808137;5.2899885;
0;12:11:21:430;-1.2234371;0.31483752;
0;12:11:21:440;-7.656657;3.5410242;
0;12:11:21:450;-8.391677;-0.6428431;
0;12:11:21:460;-5.616797;2.1332338;
0;12:11:21:471;8.346188;1.9333179;
0;12:11:21:482;1.4616601;-2.4959552;
0;12:11:21:493;1.1097125;1.186327;
0;12:11:21:504;-1.447295;8.47308;
0;12:11:21:514;-4.226963;1.3814543;
0;12:11:21:524;-7.079654;2.6132712;
0;12:11:21:534;0.33159694;2.2218192;
0;12:11:21:545;0.7230489;-1.982399;
0;12:11:21:556;-0.031124622;-1.282095;
0;12:11:21:566;-1.2330139;4.187459;
0;12:11:21:576;-4.284424;1.8602947;
0;12:11:21:590;4.414908;5.628768;
0;12:11:21:601;-0.842759;1.7968484;
0;12:11:21:612;-1.5849615;0.039504327;
0;12:11:21:622;3.2668881;2.6527755;
0;12:11:21:633;-0.91817635;-0.80564886;
0;12:11:21:643;-0.15801731;4.6938324;
0;12:11:21:654;3.9264908;3.9707835;
0;12:11:21:665;-8.836999;-2.0171149;
0;12:11:21:676;-1.7190368;0.31364042;
0;12:11:21:686;0.63087213;-0.4249708;
0;12:11:21:701;-3.3482912;-1.3180081;
0;12:11:21:710;5.3163247;7.356185;
0;12:11:21:720;-5.9483943;-0.3866636;
0;12:11:21:730;1.1348516;0.41299978;
0;12:11:21:740;-4.023456;1.0989386;
0;12:11:21:751;2.2505496;-0.8283938;
0;12:11:21:761;-0.80564886;-3.5673606;
0;12:11:21:772;-2.4791958;4.262876;
0;12:11:21:783;-3.606865;0.7541735;
0;12:11:21:793;-4.882974;3.3147724;
0;12:11:21:803;1.8543092;-4.9440265;
0;12:11:21:814;-6.7145386;-0.07062895;
0;12:11:21:825;5.29358;0.35553896;
0;12:11:21:835;4.226963;7.8769236;
0;12:11:21:846;4.10845;-0.16519992;
0;12:11:21:856;7.07726;5.828684;
0;12:11:21:867;3.369839;-4.3047748;
0;12:11:21:877;-0.93014735;-0.2765303;
0;12:11:21:887;-7.1766195;-2.8742392;
0;12:11:21:898;-1.4221559;2.7964275;
0;12:11:21:908;2.9496565;0.19632454;
0;12:11:21:919;-2.4372973;0.011971008;
0;12:11:21:929;2.1859062;1.2030864;
0;12:11:21:940;9.39365;3.168726;
0;12:11:21:950;4.096479;6.3865333;
0;12:11:21:960;4.1371803;-2.303222;
0;12:11:21:971;0.16998832;3.5242648;
0;12:11:21:981;0.21906945;0.80445176;
0;12:11:21:992;-1.6783354;-5.3857565;
0;12:11:22:003;6.221333;4.1838675;
0;12:11:22:014;3.9600096;-1.9009962;
0;12:11:22:024;5.711368;2.777274;
0;12:11:22:035;1.9692309;0.32800564;
0;12:11:22:045;2.147599;-2.5821466;
0;12:11:22:056;-2.183512;0.7134721;
0;12:11:22:066;1.3838485;-0.7637503;
0;12:11:22:077;1.7896658;-0.8367735;
0;12:11:22:087;0.7038953;2.4732103;
0;12:11:22:097;8.401254;0.39145198;
0;12:11:22:108;4.5561657;-2.4744074;
0;12:11:22:118;-3.0777464;-1.638831;
0;12:11:22:128;-1.1324574;-3.394978;
0;12:11:22:139;-5.553351;-2.859874;
0;12:11:22:150;-2.0638018;6.7121444;
0;12:11:22:161;1.9488802;0.8750807;
0;12:11:22:171;-2.7832594;3.2680852;
0;12:11:22:181;-1.8567034;2.1739352;
0;12:11:22:192;1.0019734;-6.1638722;
0;12:11:22:202;1.6472107;-1.3814543;
0;12:11:22:213;5.935226;-1.22224;
0;12:11:22:223;1.0941502;1.5682021;
0;12:11:22:234;-0.6811504;1.1133038;
0;12:11:22:245;4.1491513;8.968679;
0;12:11:22:255;-1.2330139;3.8247373;
0;12:11:22:266;1.839944;2.6156654;
0;12:11:22:276;6.0621185;5.4659624;
0;12:11:22:287;-2.8275523;1.9764135;
0;12:11:22:298;-4.0054994;-4.425682;
0;12:11:22:308;-5.1355624;-2.9520507;
0;12:11:22:319;-7.0808516;-0.32680854;
0;12:11:22:329;0.60094464;5.3043537;
0;12:11:22:340;5.604826;-2.6539726;
0;12:11:22:350;3.9217024;5.4085016;
0;12:11:22:361;-0.36152446;-0.61770403;
0;12:11:22:371;-7.3609734;0.92655605;
0;12:11:22:382;-1.8471266;-1.0953473;
0;12:11:22:392;3.4272997;0.12808979;
0;12:11:22:403;-2.243367;0.9911995;
0;12:11:22:413;8.167819;6.3230867;
0;12:11:22:424;-0.80924016;-1.3156139;
0;12:11:22:435;-1.2210429;1.0534488;
0;12:11:22:446;5.922058;1.3120226;
0;12:11:22:456;-3.3506854;2.066196;
0;12:11:22:467;-4.4161053;1.5825673;
0;12:11:22:477;4.1491513;0.51714754;
0;12:11:22:488;6.0681043;0.91817635;
0;12:11:22:498;4.972757;4.175488;
0;12:11:22:508;-3.2944214;0.6823475;
0;12:11:22:518;-6.1004257;-2.885013;
0;12:11:22:528;-3.5110967;-2.9999347;
0;12:11:22:538;4.120421;1.4401124;
0;12:11:22:548;0.30645782;1.4568717;
0;12:11:22:559;-2.4899697;4.8338933;
0;12:11:22:569;4.9105077;-0.14604631;
0;12:11:22:580;2.3750482;0.2645593;
0;12:11:22:590;4.1946416;-5.451597;
0;12:11:22:600;1.3467385;-0.9780314;
0;12:11:22:610;2.8574798;5.907693;
0;12:11:22:620;-12.391191;-1.9201498;
0;12:11:22:630;6.685808;7.5285673;
0;12:11:22:640;7.3992805;0.4369418;
0;12:11:22:651;-7.856573;-0.39384618;
0;12:11:22:662;4.759673;1.7860745;
0;12:11:22:673;-7.2101383;0.35793316;
0;12:11:22:683;3.157952;-3.040636;
0;12:11:22:694;1.34195;-4.176685;
0;12:11:22:705;-3.357868;8.51019;
0;12:11:22:716;11.790246;8.714894;
0;12:11:22:726;4.220978;5.3594203;
0;12:11:22:737;-0.6895301;-7.548918;
0;12:11:22:748;-1.4329298;-2.9269116;
0;12:11:22:758;-1.8614918;-4.0462008;
0;12:11:22:769;2.847903;5.0278234;
0;12:11:22:779;-7.514202;-2.6719291;
0;12:11:22:790;1.8806454;3.8977604;
0;12:11:22:800;-4.277241;-3.6990416;
0;12:11:22:811;2.5761611;0.79008657;
0;12:11:22:821;4.0641575;-0.6655881;
0;12:11:22:832;1.2234371;-1.0845734;
0;12:11:22:842;3.6882677;4.5777135;
0;12:11:22:853;-0.81642276;-4.027047;
0;12:11:22:864;-4.5022964;2.9221232;
0;12:11:22:875;3.4021606;-3.572149;
0;12:11:22:885;-4.346673;2.2541409;
0;12:11:22:896;-3.8666358;-2.5198972;
0;12:11:22:906;8.765172;3.0131028;
0;12:11:22:917;-1.1611878;0.35314476;
0;12:11:22:928;-4.325125;4.3897686;
0;12:11:22:939;5.2265425;-4.2173862;
0;12:11:22:949;0.19393034;0.51475334;
0;12:11:22:960;-3.156755;-1.8710686;
0;12:11:22:970;1.9093759;0.8798691;
0;12:11:22:981;-1.1133038;0.89662856;
0;12:11:22:991;4.71538;2.007538;
0;12:11:23:001;4.7740383;0.1388637;
0;12:11:23:012;-4.2664676;-0.15562311;
0;12:11:23:023;-4.6100354;-3.2513258;
0;12:11:23:033;1.8088194;0.142455;
0;12:11:23:043;-2.622848;0.45729253;
0;12:11:23:054;-1.5179238;1.0426749;
0;12:11:23:064;-5.896919;1.2294226;
0;12:11:23:075;-6.573281;-1.0390835;
0;12:11:23:085;0.81283146;1.4987702;
0;12:11:23:096;-4.4963107;-0.5781997;
0;12:11:23:106;-5.566519;1.839944;
0;12:11:23:117;-6.769605;-2.56419;
0;12:11:23:127;-12.36246;0.5267244;
0;12:11:23:138;-3.9815574;-5.675455;
0;12:11:23:149;-5.9148755;-1.697489;
0;12:11:23:160;-10.134656;-3.120842;
0;12:11:23:171;-5.0266266;1.1611878;
0;12:11:23:181;-13.080721;-2.0386627;
0;12:11:23:192;-2.5031378;-0.37588966;
0;12:11:23:203;-9.233239;-4.935647;
0;12:11:23:214;-5.2863975;2.6312277;
0;12:11:23:224;-9.379285;-3.2106245;
0;12:11:23:235;-1.4891934;1.4796166;
0;12:11:23:246;-14.607024;-0.17477672;
0;12:11:23:256;-14.112622;0.34117374;
0;12:11:23:267;3.690662;-3.6846764;
0;12:11:23:278;-12.871228;1.7609353;
0;12:11:23:288;-3.0250738;0.94810385;
0;12:11:23:299;-9.13388;-4.286818;
0;12:11:23:310;-14.201207;-0.2741361;
0;12:11:23:320;-0.92176765;0.0035913025;
0;12:11:23:330;4.5058875;1.9716251;
0;12:11:23:341;-4.5633483;5.3606176;
0;12:11:23:351;-12.899959;0.90381116;
0;12:11:23:362;0.8475474;-3.7122097;
0;12:11:23:373;-4.396951;5.935226;
0;12:11:23:383;1.6950948;3.1998506;
0;12:11:23:393;-3.2836475;-3.1675289;
0;12:11:23:404;-10.801441;2.6539726;
0;12:11:23:414;-5.770026;-1.2880806;
0;12:11:23:425;-5.683835;-1.8339585;
0;12:11:23:436;-12.752715;0.8798691;
0;12:11:23:447;-11.374852;-5.9543796;
0;12:11:23:457;-0.79367787;-0.50038815;
0;12:11:23:467;-6.531382;-0.46447513;
0;12:11:23:478;-8.668207;-0.2837129;
0;12:11:23:488;-15.300146;-4.818331;
0;12:11:23:499;-3.265691;3.5901055;
0;12:11:23:509;-0.092176765;1.412579;
0;12:11:23:520;4.128801;3.0346506;
0;12:11:23:530;-10.734404;-1.8770541;
0;12:11:23:541;-12.038046;1.5071499;
0;12:11:23:552;-4.6399627;-1.7717092;
0;12:11:23:563;-3.7852328;3.690662;
0;12:11:23:573;-6.6044054;1.8698715;
0;12:11:23:584;-9.293094;-0.3866636;
0;12:11:23:595;-3.5314474;5.7269306;
0;12:11:23:606;2.741361;4.425682;
0;12:11:23:617;-8.14268;0.17477672;
0;12:11:23:627;-9.80665;2.4468741;
0;12:11:23:637;-2.5917234;3.916914;
0;12:11:23:648;-3.8247373;1.0043676;
0;12:11:23:658;-10.951078;-0.047884032;
0;12:11:23:669;3.7205894;6.1638722;
0;12:11:23:680;-2.7449522;2.9879637;
0;12:11:23:690;-8.846576;0.9959879;
0;12:11:23:701;-2.110489;1.9931729;
0;12:11:23:712;-4.4795513;2.9053638;
0;12:11:23:721;-6.955156;2.3355439;
0;12:11:23:731;-3.843891;1.3838485;
0;12:11:23:742;-5.547365;3.181894;
0;12:11:23:753;3.4871547;4.1635165;
0;12:11:23:763;-1.3204023;2.9053638;
0;12:11:23:774;2.2254105;7.5046253;
0;12:11:23:784;-6.7731967;-1.4257472;
0;12:11:23:795;-6.075287;3.1675289;
0;12:11:23:805;-8.37013;3.7457285;
0;12:11:23:816;-2.919729;3.180697;
0;12:11:23:827;-0.46567222;2.4289176;
0;12:11:23:838;-4.522647;3.7660792;
0;12:11:23:848;6.054936;4.2173862;
0;12:11:23:859;-1.0247183;-3.8163576;
0;12:11:23:869;-1.7082629;3.2585084;
0;12:11:23:880;0.074220255;5.4049106;
0;12:11:23:890;8.893262;3.976769;
0;12:11:23:901;-7.5309615;-5.2169657;
0;12:11:23:912;-6.909666;1.163582;
0;12:11:23:923;-6.0022635;-3.3746274;
0;12:11:23:933;-3.6128504;0.9648633;
0;12:11:23:944;-6.89171;-1.484405;
0;12:11:23:955;3.0609868;8.090008;
0;12:11:23:965;6.7708025;5.571307;
0;12:11:23:976;-5.8095303;-0.5518635;
0;12:11:23:986;-6.932411;3.2321723;
0;12:11:23:997;-1.1264719;3.359065;
0;12:11:24:007;9.837775;3.8666358;
0;12:11:24:017;-4.691438;0.37828386;
0;12:11:24:027;0.8391677;1.0031705;
0;12:11:24:038;2.6180596;-2.0171149;
0;12:11:24:049;-9.528923;-3.0178912;
0;12:11:24:059;-12.436681;3.527856;
0;12:11:24:069;-2.4253263;1.7262194;
0;12:11:24:080;-9.102755;0.21308395;
0;12:11:24:091;-10.237606;2.1021092;
0;12:11:24:100;-6.266823;1.1300632;
0;12:11:24:110;-10.014946;-1.8471266;
0;12:11:24:120;-7.219715;0.92655605;
0;12:11:24:130;-6.673837;-1.1504139;
0;12:11:24:141;-9.546879;-1.4951789;
0;12:11:24:152;-8.985439;3.918111;
0;12:11:24:163;-6.3685765;-2.078167;
0;12:11:24:174;0.93134445;5.616797;
0;12:11:24:185;-9.136273;0.01436521;
0;12:11:24:195;-4.301183;2.9939492;
0;12:11:24:206;-7.867347;3.8893807;
0;12:11:24:216;-2.2158337;-2.2996306;
0;12:11:24:226;2.219425;4.003105;
0;12:11:24:236;-3.5553896;0.272939;
0;12:11:24:246;-3.5853171;-2.2613235;
0;12:11:24:256;-8.271967;-8.572439;
0;12:11:24:266;-5.410896;1.3970166;
0;12:11:24:276;-0.25498247;0.8810662;
0;12:11:24:286;-0.5374983;0.81522566;
0;12:11:24:297;-4.238934;4.5046906;
0;12:11:24:307;0.9708488;-5.0122614;
0;12:11:24:318;3.2202013;2.5462334;
0;12:11:24:328;0.44891283;-4.4520183;
0;12:11:24:339;2.4025815;-1.3563153;
0;12:11:24:350;-1.1540052;-0.8643068;
0;12:11:24:360;-0.7278373;3.8606503;
0;12:11:24:370;-3.394978;2.0913353;
0;12:11:24:380;0.23582886;-1.6627731;
0;12:11:24:391;6.453571;-1.2856863;
0;12:11:24:402;-6.3697734;-1.4101849;
0;12:11:24:412;-0.6967127;-1.578976;
0;12:11:24:423;4.197036;-1.7286136;
0;12:11:24:433;-6.631939;1.3946224;
0;12:11:24:444;-9.3421755;-2.0231004;
0;12:11:24:455;-0.32321724;-2.7353754;
0;12:11:24:465;12.789825;-1.7968484;
0;12:11:24:476;4.209007;-13.163321;
0;12:11:24:486;1.6986861;-4.614824;
0;12:11:24:496;-4.6004586;0.17118542;
0;12:11:24:507;3.0298622;15.05474;
0;12:11:24:517;2.7138276;-8.857349;
0;12:11:24:527;4.781221;11.535264;
0;12:11:24:538;3.6655228;4.1359835;
0;12:11:24:548;-2.870648;-2.054225;
0;12:11:24:559;-3.527856;0.33518824;
0;12:11:24:569;-9.591172;-3.0011318;
0;12:11:24:580;1.7669208;-0.46208093;
0;12:11:24:590;-1.3467385;1.1528081;
0;12:11:24:601;5.638345;-3.5218706;
0;12:11:24:611;3.1998506;1.472434;
0;12:11:24:621;-3.228581;0.81761986;
0;12:11:24:631;2.5079262;-1.4293385;
0;12:11:24:642;-3.3973722;0.37469256;
0;12:11:24:653;3.702633;0.51116204;
0;12:11:24:663;5.2660465;-9.514558;
0;12:11:24:674;-2.349909;-7.371747;
0;12:11:24:684;-4.4819455;-5.4264584;
0;12:11:24:695;4.4699745;-2.3175871;
0;12:11:24:705;1.6927006;-2.2349873;
0;12:11:24:716;2.3343468;0.6404489;
0;12:11:24:727;1.7286136;6.123171;
0;12:11:24:736;3.0825348;1.8854338;
0;12:11:24:746;6.467936;1.0103531;
0;12:11:24:757;6.8749504;-3.6056678;
0;12:11:24:768;-7.9463553;-0.39863458;
0;12:11:24:779;0.4297592;4.4244847;
0;12:11:24:790;2.1883004;-3.8498764;
0;12:11:24:800;-6.3230867;-0.8439561;
0;12:11:24:811;-5.1882353;1.2437878;
0;12:11:24:821;-6.220136;-2.397793;
0;12:11:24:832;3.3171666;0.6967127;
0;12:11:24:843;0.3196259;-8.309077;
0;12:11:24:852;5.4551888;-1.2868834;
0;12:11:24:863;-9.241618;-4.560954;
0;12:11:24:874;-8.34499;-5.816713;
0;12:11:24:884;-8.53054;2.4432828;
0;12:11:24:894;-13.576321;-12.7730665;
0;12:11:24:905;-1.3682863;5.9029045;
0;12:11:24:915;-3.2225955;-9.320627;
0;12:11:24:926;-10.466252;-11.634624;
0;12:11:24:936;-15.222335;1.8710686;
0;12:11:24:947;-0.107739076;-3.715801;
0;12:11:24:957;-4.2341456;-0.18794483;
0;12:11:24:967;-15.910667;3.2788591;
0;12:11:24:978;-14.450204;-5.5605335;
0;12:11:24:989;-3.5781345;-0.61890113;
0;12:11:25:000;-15.502456;-1.5011644;
0;12:11:25:011;-18.771738;-4.3275194;
0;12:11:25:022;-12.158954;-5.645528;
0;12:11:25:033;-18.237831;2.0949266;
0;12:11:25:043;6.9228344;-3.6894648;
0;12:11:25:054;-1.5514427;-4.5681367;
0;12:11:25:064;-13.912706;-1.4401124;
0;12:11:25:074;-5.2289367;-6.0010667;
0;12:11:25:085;1.8315643;-2.5354595;
0;12:11:25:096;-3.845088;3.7588966;
0;12:11:25:106;-13.978547;-12.676101;
0;12:11:25:117;-15.444995;2.5486276;
0;12:11:25:127;-13.565547;-0.93014735;
0;12:11:25:137;-22.315157;-8.209718;
0;12:11:25:148;3.1735144;5.831078;
0;12:11:25:158;2.8658595;7.952341;
0;12:11:25:169;-9.672575;-1.316811;
0;12:11:25:179;8.848969;6.0800753;
0;12:11:25:190;-8.112753;4.4101195;
0;12:11:25:201;-14.641741;-0.33399114;
0;12:11:25:211;-8.608353;-3.5314474;
0;12:11:25:221;-9.012972;-2.597709;
0;12:11:25:232;-10.811018;1.472434;
0;12:11:25:243;-4.367024;-0.45130703;
0;12:11:25:253;-7.145495;-0.94810385;
0;12:11:25:264;2.5450363;-2.681506;
0;12:11:25:274;-3.039439;-10.480618;
0;12:11:25:285;-9.810242;-0.1364695;
0;12:11:25:295;-11.696873;-2.337938;
0;12:11:25:305;-15.656882;-6.4188547;
0;12:11:25:316;-7.216124;3.7421372;
0;12:11:25:326;1.6843209;-5.0601454;
0;12:11:25:337;-9.981427;2.8395233;
0;12:11:25:348;-11.180922;1.6579847;
0;12:11:25:358;-8.852561;1.3239936;
0;12:11:25:369;-6.83784;3.192668;
0;12:11:25:380;-5.7987566;2.6539726;
0;12:11:25:390;-11.984177;2.6420016;
0;12:11:25:400;-3.323152;4.7656584;
0;12:11:25:411;-2.6599581;3.763685;
0;12:11:25:421;-16.28536;6.8282633;
0;12:11:25:432;-4.997896;4.060566;
0;12:11:25:442;-7.7679873;5.708974;
0;12:11:25:453;-0.6512229;1.8459295;
0;12:11:25:463;-4.736928;8.549694;
0;12:11:25:474;-3.8606503;3.810372;
0;12:11:25:485;-11.145009;2.861071;
0;12:11:25:496;-17.171215;0.24420857;
0;12:11:25:506;-7.606379;5.222951;
0;12:11:25:516;0.31124622;3.8474822;
0;12:11:25:527;-5.791574;0.6979098;
0;12:11:25:537;0.16400282;3.762488;
0;12:11:25:547;-4.6830587;3.8762126;
0;12:11:25:557;2.327164;2.1200657;
0;12:11:25:568;3.108871;-0.47405192;
0;12:11:25:578;-5.231331;6.4882865;
0;12:11:25:588;-3.5889084;2.1332338;
0;12:11:25:599;1.067814;3.2429461;
0;12:11:25:609;0.30166942;2.60968;
0;12:11:25:620;4.2293572;5.6156;
0;12:11:25:631;-8.637083;2.6791117;
0;12:11:25:641;4.8961425;1.7262194;
0;12:11:25:651;6.3589997;1.7058687;
0;12:11:25:661;-8.562862;2.6276364;
0;12:11:25:672;8.446744;3.040636;
0;12:11:25:682;-5.5461683;1.0929531;
0;12:11:25:693;8.590396;4.697424;
0;12:11:25:703;-1.270124;-5.342661;
0;12:11:25:715;5.3498435;5.759252;
0;12:11:25:725;1.4915876;1.9656396;
0;12:11:25:736;4.283227;4.948815;
0;12:11:25:747;3.0454245;3.822343;
0;12:11:25:757;8.6334915;-0.842759;
0;12:11:25:768;-3.846285;-3.8534677;
0;12:11:25:778;0.34596214;3.7014358;
0;12:11:25:788;2.0458453;1.055843;
0;12:11:25:799;4.935647;0.62129533;
0;12:11:25:810;4.0414124;8.072051;
0;12:11:25:820;2.4911668;4.3394904;
0;12:11:25:830;12.571953;6.88333;
0;12:11:25:841;-2.1320367;-5.0613422;
0;12:11:25:851;-1.9907787;-2.6898856;
0;12:11:25:862;2.1380222;-3.7229836;
0;12:11:25:873;1.0235212;1.0546459;
0;12:11:25:883;-4.011485;5.140351;
0;12:11:25:893;-2.4839842;6.329072;
0;12:11:25:904;7.562086;2.111686;
0;12:11:25:914;1.3742718;7.869741;
0;12:11:25:924;4.3873744;-2.778471;
0;12:11:25:934;-3.2070332;-0.8487445;
0;12:11:25:945;0.9900024;-1.3467385;
0;12:11:25:955;-4.8698063;-3.942053;
0;12:11:25:965;-2.6372132;0.2681506;
0;12:11:25:975;-1.6448165;0.4189853;
0;12:11:25:985;0.045489833;7.2209125;
0;12:11:25:996;-2.5198972;3.764882;
0;12:11:26:006;-5.481525;1.6244658;
0;12:11:26:016;10.223241;4.6160207;
0;12:11:26:027;2.9484594;-2.2732944;
0;12:11:26:038;-1.5658079;2.2756886;
0;12:11:26:049;6.8869214;-0.5793968;
0;12:11:26:060;1.0319009;1.6400281;
0;12:11:26:070;-1.6986861;2.3930047;
0;12:11:26:080;-3.1531637;5.1247888;
0;12:11:26:090;0.031124622;-3.6511576;
0;12:11:26:100;1.3587095;1.3060371;
0;12:11:26:111;4.6471453;-1.4640543;
0;12:11:26:122;1.1947067;0.7134721;
0;12:11:26:132;-2.9340942;-5.7999535;
0;12:11:26:142;1.1815386;2.3331497;
0;12:11:26:152;6.341043;-0.712275;
0;12:11:26:162;-1.5598224;4.935647;
0;12:11:26:172;5.7855883;5.105635;
0;12:11:26:182;-0.30047232;1.2629414;
0;12:11:26:192;4.187459;9.333796;
0;12:11:26:202;1.9776106;-7.4375877;
0;12:11:26:212;-9.463082;2.4396915;
0;12:11:26:222;-4.485537;-2.7988217;
0;12:11:26:232;-5.069722;0.4201824;
0;12:11:26:243;6.271611;-2.9484594;
0;12:11:26:254;-3.870227;-3.2489316;
0;12:11:26:265;-7.2233067;-0.79726917;
0;12:11:26:276;-3.229778;1.6400281;
0;12:11:26:287;0.18674773;-0.93373865;
0;12:11:26:298;0.8870517;10.171766;
0;12:11:26:309;-0.59017074;6.967127;
0;12:11:26:320;-13.68406;-0.80684596;
0;12:11:26:330;-10.426748;1.0977415;
0;12:11:26:340;-3.393781;-7.7320743;
0;12:11:26:350;-0.14844051;-6.1662664;
0;12:11:26:360;2.8179753;1.9548657;
0;12:11:26:370;-0.89662856;-4.5118732;
0;12:11:26:381;0.8415619;-1.3826514;
0;12:11:26:392;-0.30047232;8.992621;
0;12:11:26:403;-1.6579847;-0.05626374;
0;12:11:26:413;6.945579;6.7971387;
0;12:11:26:424;-3.2249897;4.453215;
0;12:11:26:434;2.1499932;3.0202854;
0;12:11:26:444;-3.1974564;-4.6232033;
0;12:11:26:454;1.7070658;-2.3930047;
0;12:11:26:464;6.884527;-1.5514427;
0;12:11:26:475;-4.295198;8.325836;
0;12:11:26:484;-2.0039468;2.8443117;
0;12:11:26:494;2.3918076;4.4005427;
0;12:11:26:505;2.6683378;2.9173348;
0;12:11:26:515;-1.1168951;0.30047232;
0;12:11:26:525;-7.0461354;-4.909311;
0;12:11:26:536;-5.8215013;1.4760253;
0;12:11:26:546;-4.5884876;-1.2090719;
0;12:11:26:557;-8.595184;-3.8546648;
0;12:11:26:568;2.349909;2.2409728;
0;12:11:26:578;-14.265851;-12.999318;
0;12:11:26:589;-17.608156;1.7669208;
0;12:11:26:600;-7.350199;11.641806;
0;12:11:26:611;-17.11974;-11.585542;
0;12:11:26:620;4.903325;-1.5646108;
0;12:11:26:631;-11.61547;7.5884223;
0;12:11:26:641;-3.4488475;9.726444;
0;12:11:26:651;0.8607155;-5.5760956;
0;12:11:26:661;-22.011093;0.439336;
0;12:11:26:671;10.064027;6.555324;
0;12:11:26:681;-4.987122;-6.719327;
0;12:11:26:691;-2.0458453;-2.859874;
0;12:11:26:702;-6.667852;9.301474;
0;12:11:26:712;1.7896658;0.9744401;
0;12:11:26:723;-12.320562;-11.6190605;
0;12:11:26:733;-3.9228995;-2.1260512;
0;12:11:26:743;-6.8988924;-4.739322;
0;12:11:26:753;-18.946516;-9.870096;
0;12:11:26:763;2.7030537;-2.5127146;
0;12:11:26:773;-7.9810715;1.3012487;
0;12:11:26:783;-0.22984336;2.944868;
0;12:11:26:793;-6.2752028;5.637148;
0;12:11:26:803;0.59855044;-1.6352397;
0;12:11:26:814;-3.846285;1.7202339;
0;12:11:26:825;-3.5984852;4.1683054;
0;12:11:26:836;-0.094570965;4.5777135;
0;12:11:26:846;3.1196449;-5.390545;
0;12:11:26:857;8.835801;4.0318356;
0;12:11:26:867;18.429367;-4.321534;
0;12:11:26:877;14.404715;-0.8367735;
0;12:11:26:887;22.236149;-5.7867856;
0;12:11:26:897;11.77229;-4.4687777;
0;12:11:26:908;10.068815;-4.8386817;
0;12:11:26:918;2.2218192;-0.16280572;
0;12:11:26:929;10.231621;-10.283096;
0;12:11:26:938;8.692149;-5.2660465;
0;12:11:26:948;-2.8072014;-1.472434;
0;12:11:26:958;12.155362;-3.2261868;
0;12:11:26:969;5.2421045;-1.8974048;
0;12:11:26:979;12.927492;0.7422025;
0;12:11:26:989;9.522937;-0.641646;
0;12:11:27:000;0.36870706;-1.5035586;
0;12:11:27:009;19.091364;-1.3239936;
0;12:11:27:019;12.489353;6.8569937;
0;12:11:27:030;-2.4169466;-13.257892;
0;12:11:27:040;21.028273;1.3144168;
0;12:11:27:050;21.363462;0.7493851;
0;12:11:27:060;-0.08259996;-6.159084;
0;12:11:27:071;16.947357;7.1383123;
0;12:11:27:081;12.764687;-5.281609;
0;12:11:27:092;16.95813;-1.3311762;
0;12:11:27:101;14.593857;-0.59136784;
0;12:11:27:111;12.036849;-5.8119245;
0;12:11:27:121;11.7627125;-2.8694508;
0;12:11:27:132;15.952566;1.376666;
0;12:11:27:143;-4.8027687;-7.973889;
0;12:11:27:153;14.985309;5.161899;
0;12:11:27:163;-8.279149;-3.4620156;
0;12:11:27:174;5.2852;-2.5725696;
0;12:11:27:184;-0.5482722;1.1839328;
0;12:11:27:195;18.228254;-7.6494746;
0;12:11:27:205;12.290634;-4.8494554;
0;12:11:27:216;16.654066;4.072537;
0;12:11:27:227;5.0757074;-8.184579;
0;12:11:27:237;8.283937;4.132392;
0;12:11:27:247;10.208876;-5.389348;
0;12:11:27:257;-8.573636;-0.5267244;
0;12:11:27:267;12.625823;-6.087258;
0;12:11:27:277;18.628086;-3.6655228;
0;12:11:27:287;14.398729;1.6998832;
0;12:11:27:297;16.95813;-4.3861775;
0;12:11:27:308;12.194866;-3.881001;
0;12:11:27:319;6.042965;3.8426938;
0;12:11:27:329;8.911219;0.6847417;
0;12:11:27:340;6.5924344;7.5812397;
0;12:11:27:350;11.425131;0.39264908;
0;12:11:27:361;-0.1448492;0.17238252;
0;12:11:27:371;5.3163247;5.6108117;
0;12:11:27:381;18.198328;3.9636009;
0;12:11:27:391;4.654328;3.1998506;
0;12:11:27:402;9.858126;4.009091;
0;12:11:27:413;10.404003;2.918532;
0;12:11:27:424;7.9104424;2.4732103;
0;12:11:27:434;3.039439;1.2940661;
0;12:11:27:445;12.649765;12.813767;
0;12:11:27:456;14.360422;5.613206;
0;12:11:27:466;5.133168;0.830788;
0;12:11:27:477;3.928885;6.9491706;
0;12:11:27:487;6.197391;5.9543796;
0;12:11:27:498;5.427655;8.750807;
0;12:11:27:508;2.4504654;5.2660465;
0;12:11:27:518;3.321955;11.512519;
0;12:11:27:529;4.6471453;7.5285673;
0;12:11:27:540;13.126211;1.376666;
0;12:11:27:550;8.391677;5.4863133;
0;12:11:27:561;-3.393781;0.272939;
0;12:11:27:571;-0.62728083;3.9205053;
0;12:11:27:583;2.019509;10.065224;
0;12:11:27:593;1.6950948;11.101913;
0;12:11:27:603;10.992977;3.928885;
0;12:11:27:613;10.66138;13.63857;
0;12:11:27:623;10.680533;3.301604;
0;12:11:27:633;11.599907;4.3275194;
0;12:11:27:644;7.303512;8.195353;
0;12:11:27:654;-4.7141833;7.6003933;
0;12:11:27:665;8.027759;7.85777;
0;12:11:27:675;-0.17118542;7.8469963;
0;12:11:27:686;9.212888;2.7018566;
0;12:11:27:697;5.2744265;4.155137;
0;12:11:27:708;-0.21906945;6.171055;
0;12:11:27:718;1.115698;0.4345476;
0;12:11:27:728;-1.0295067;10.104729;
0;12:11:27:739;0.94570965;3.3255463;
0;12:11:27:749;-0.6859388;2.4756045;
0;12:11:27:760;-1.816002;7.0820484;
0;12:11:27:770;-0.60214174;6.8222775;
0;12:11:27:780;3.1423898;4.6519337;
0;12:11:27:791;5.0122614;10.959458;
0;12:11:27:802;-4.2521024;1.8339585;
0;12:11:27:813;-5.9759274;6.9503675;
0;12:11:27:823;2.1260512;1.839944;
0;12:11:27:834;0.4237737;6.5241995;
0;12:11:27:844;2.8299465;1.9536686;
0;12:11:27:855;-4.519056;-1.1899183;
0;12:11:27:865;-1.1587936;6.0728927;
0;12:11:27:876;-4.630386;9.765948;
0;12:11:27:886;-8.537724;-2.3750482;
0;12:11:27:897;-3.8833952;-0.51116204;
0;12:11:27:907;6.063316;4.010288;
0;12:11:27:917;2.7844565;7.147889;
0;12:11:27:927;-2.2050598;3.7253778;
0;12:11:27:938;-0.18315643;3.846285;
0;12:11:27:949;8.512584;2.005144;
0;12:11:27:960;1.4987702;0.91099375;
0;12:11:27:970;-7.651869;-3.180697;
0;12:11:27:981;-7.4974427;-1.6448165;
0;12:11:27:991;-2.292448;3.252523;
0;12:11:28:002;-3.0789435;3.098097;
0;12:11:28:013;6.811504;1.0929531;
0;12:11:28:023;2.0937295;4.9919105;
0;12:11:28:033;1.4568717;-3.9133227;
0;12:11:28:044;-1.3263878;-1.4041992;
0;12:11:28:054;-9.284714;3.8247373;
0;12:11:28:065;1.5753847;-2.6731262;
0;12:11:28:075;-1.1168951;4.7800236;
0;12:11:28:085;-1.4425066;4.5118732;
0;12:11:28:096;-7.0365586;0.5410896;
0;12:11:28:107;-1.520318;5.33907;
0;12:11:28:117;-3.3638535;4.6818614;
0;12:11:28:127;-14.841657;-2.5019407;
0;12:11:28:137;-3.1783028;9.755175;
0;12:11:28:147;-10.788273;-1.0654198;
0;12:11:28:158;-5.853823;4.924873;
0;12:11:28:168;-1.8674773;1.6328455;
0;12:11:28:178;9.470264;1.2378023;
0;12:11:28:188;-5.687426;-2.4672248;
0;12:11:28:199;-18.426973;2.4732103;
0;12:11:28:209;-3.882198;-3.8857894;
0;12:11:28:219;0.47165772;5.48751;
0;12:11:28:229;8.110358;6.671443;
0;12:11:28:239;-0.47285482;5.0122614;
0;12:11:28:249;-0.35673606;1.602918;
0;12:11:28:260;-0.08259996;-0.1340753;
0;12:11:28:270;-4.3646297;-5.118803;
0;12:11:28:280;-2.8754363;-1.2761095;
0;12:11:28:290;1.8315643;3.0011318;
0;12:11:28:301;-6.327875;3.4225113;
0;12:11:28:311;-5.09127;1.2198458;
0;12:11:28:322;4.984728;9.115923;
0;12:11:28:333;-3.071761;2.055422;
0;12:11:28:343;-2.1918917;1.2318168;
0;12:11:28:353;5.887342;-1.1803415;
0;12:11:28:364;-4.7919946;-4.4807487;
0;12:11:28:373;-4.0438066;0.21068975;
0;12:11:28:384;-4.5801077;1.4951789;
0;12:11:28:395;8.537724;2.8981812;
0;12:11:28:405;-6.2404866;5.315128;
0;12:11:28:416;6.066907;1.3156139;
0;12:11:28:426;4.5082817;-5.6096144;
0;12:11:28:437;6.8869214;6.531382;
0;12:11:28:447;-4.1515455;1.3814543;
0;12:11:28:458;-6.1650696;0.6368576;
0;12:11:28:468;4.152743;4.435259;
0;12:11:28:478;-2.7748797;3.1830912;
0;12:11:28:489;7.141904;2.078167;
0;12:11:28:500;4.6459484;-4.819528;
0;12:11:28:509;-1.340753;0.46447513;
0;12:11:28:519;-10.704475;7.2065473;
0;12:11:28:529;11.702858;2.9364884;
0;12:11:28:539;-0.6715736;-0.23942018;
0;12:11:28:550;6.8581905;0.6344634;
0;12:11:28:560;0.7278373;-2.3594859;
0;12:11:28:571;-12.559982;-1.99437;
0;12:11:28:581;1.5622166;11.349713;
0;12:11:28:591;0.107739076;-1.9859903;
0;12:11:28:601;4.289212;7.8386164;
0;12:11:28:612;-1.8962077;-4.5298295;
0;12:11:28:622;-0.6488287;-1.7944542;
0;12:11:28:632;-3.204639;-0.06584055;
0;12:11:28:643;-5.731719;1.5682021;
0;12:11:28:653;2.96881;6.317101;
0;12:11:28:663;5.7784057;-0.38067806;
0;12:11:28:674;-10.653001;3.3039982;
0;12:11:28:685;-5.979519;4.0078936;
0;12:11:28:696;-0.8571242;0.16759412;
0;12:11:28:706;0.8367735;2.4253263;
0;12:11:28:716;-0.51954174;-4.325125;
0;12:11:28:726;-7.4830775;-3.2920272;
0;12:11:28:737;4.9045224;9.063251;
0;12:11:28:747;0.2813187;-4.390966;
0;12:11:28:757;-1.9859903;1.0785879;
0;12:11:28:768;6.197391;3.4991257;
0;12:11:28:778;-7.3047094;-1.7932571;
0;12:11:28:789;5.309142;4.8099513;
0;12:11:28:800;-0.724246;1.4377182;
0;12:11:28:811;-5.7377043;-3.2237926;
0;12:11:28:821;6.1890116;1.6891093;
0;12:11:28:832;-14.634558;-3.9588125;
0;12:11:28:843;5.619191;-2.859874;
0;12:11:28:854;-5.4623713;0.50158525;
0;12:11:28:864;-1.9476831;4.76925;
0;12:11:28:875;2.4073699;-0.24181437;
0;12:11:28:885;-8.748413;-1.0235212;
0;12:11:28:896;-4.6722846;2.5151088;
0;12:11:28:906;-1.5849615;0.7182605;
0;12:11:28:917;1.6292542;0.89902276;
0;12:11:28:927;-4.1299977;-1.376666;
0;12:11:28:938;0.7625532;-0.21906945;
0;12:11:28:949;-2.3139958;3.0873232;
0;12:11:28:960;-7.091625;0.18315643;
0;12:11:28:970;7.7572136;-3.0681696;
0;12:11:28:981;6.979098;1.7741034;
0;12:11:28:991;-6.9838862;-3.1830912;
0;12:11:29:001;-8.340201;1.9835961;
0;12:11:29:012;-5.60722;-0.47285482;
0;12:11:29:023;9.172187;2.6024973;
0;12:11:29:034;-0.39384618;-2.3391352;
0;12:11:29:044;8.37013;-0.82360536;
0;12:11:29:055;-9.351752;-0.90979666;
0;12:11:29:066;1.2785037;-2.44448;
0;12:11:29:076;4.807557;-0.8702923;
0;12:11:29:086;-8.664616;-4.7620673;
0;12:11:29:096;0.1448492;0.023942016;
0;12:11:29:107;-7.445967;-4.6459484;
0;12:11:29:118;0.5398925;2.1260512;
0;12:11:29:129;0.51954174;-4.35625;
0;12:11:29:140;-6.218939;-4.8422728;
0;12:11:29:151;-3.0214825;-7.2029557;
0;12:11:29:161;3.2956185;-3.2202013;
0;12:11:29:172;-14.153323;-6.469133;
0;12:11:29:181;-15.841235;-2.9317;
0;12:11:29:192;-11.895591;-3.7229836;
0;12:11:29:203;-3.8522706;-1.2186487;
0;12:11:29:213;-9.427169;-7.869741;
0;12:11:29:224;-22.075737;-6.2512608;
0;12:11:29:234;-3.9863458;10.2735195;
0;12:11:29:244;-0.35553896;-8.0445175;
0;12:11:29:255;-2.96881;1.258153;
0;12:11:29:266;-2.030283;-1.1133038;
0;12:11:29:276;-15.948975;2.9987376;
0;12:11:29:287;-14.987702;-6.2859764;
0;12:11:29:297;-10.121488;4.546589;
0;12:11:29:307;-14.021643;-4.8279076;
0;12:11:29:318;-5.106832;-0.90859956;
0;12:11:29:329;-9.770737;3.788824;
0;12:11:29:340;-16.488867;-6.817489;
0;12:11:29:351;-12.322956;1.4281414;
0;12:11:29:362;-4.6698904;-6.0980315;
0;12:11:29:371;-11.36767;-1.0127473;
0;12:11:29:382;-2.9053638;-5.09127;
0;12:11:29:392;-15.014039;-3.417723;
0;12:11:29:403;0.008379706;-7.1395097;
0;12:11:29:414;-19.838356;-1.3239936;
0;12:11:29:423;-11.457452;-9.355343;
0;12:11:29:433;-6.8749504;-1.6675615;
0;12:11:29:443;-14.026431;3.6750996;
0;12:11:29:453;0.2873042;-8.643068;
0;12:11:29:463;-13.759478;-8.584411;
0;12:11:29:473;-9.860519;2.825158;
0;12:11:29:484;-2.3427265;-4.332308;
0;12:11:29:495;-6.1100025;-1.839944;
0;12:11:29:506;-19.573795;-8.012196;
0;12:11:29:517;-19.982008;-4.297592;
0;12:11:29:528;-1.1204864;-1.163582;
0;12:11:29:538;-14.941015;1.1300632;
0;12:11:29:549;-8.573636;-1.8100165;
0;12:11:29:559;-12.7814455;-6.517017;
0;12:11:29:570;-12.988544;3.0885203;
0;12:11:29:580;-6.7959414;-8.6334915;
0;12:11:29:590;-21.139605;-2.19668;
0;12:11:29:601;-12.604275;-0.076614454;
0;12:11:29:610;-20.271706;-11.444284;
0;12:11:29:621;-3.7936125;-0.6751649;
0;12:11:29:631;-9.7803135;-3.3315318;
0;12:11:29:642;19.405005;4.5645456;
0;12:11:29:653;-9.153033;-3.0358477;
0;12:11:29:663;-9.810242;11.648989;
0;12:11:29:673;-33.441013;-15.005659;
0;12:11:29:683;-9.816227;5.98311;
0;12:11:29:693;-6.007052;7.264008;
0;12:11:29:704;-2.755726;3.4943373;
0;12:11:29:715;-2.492364;13.590686;
0;12:11:29:725;-0.1400608;4.617218;
0;12:11:29:736;-3.857059;3.4356794;
0;12:11:29:746;-8.274361;6.3781533;
0;12:11:29:757;-2.8694508;8.884883;
0;12:11:29:767;-2.5474305;4.325125;
0;12:11:29:777;-6.7708025;7.1251445;
0;12:11:29:788;-5.6179943;6.283582;
0;12:11:29:798;3.465607;13.278243;
0;12:11:29:808;-12.361263;1.0067618;
0;12:11:29:818;-7.2065473;5.9160724;
0;12:11:29:829;-5.261258;6.0441623;
0;12:11:29:840;-5.380968;0.50757074;
0;12:11:29:850;-1.7621324;4.3167458;
0;12:11:29:860;-3.690662;3.2836475;
0;12:11:29:870;-6.405687;-1.697489;
0;12:11:29:881;18.93215;4.8458643;
0;12:11:29:892;5.3282957;-2.7964275;
0;12:11:29:903;10.146626;2.231396;
0;12:11:29:913;-7.255628;2.0901382;
0;12:11:29:923;2.9281087;2.837129;
0;12:11:29:934;-2.2122424;-2.1523874;
0;12:11:29:945;3.465607;9.24521;
0;12:11:29:955;-4.9164934;2.2984335;
0;12:11:29:965;0.8499416;4.2999864;
0;12:11:29:975;6.051345;4.745308;
0;12:11:29:985;-6.221333;-2.4121583;
0;12:11:29:995;-5.070919;6.429629;
0;12:11:30:005;-1.4867992;-2.1942859;
0;12:11:30:015;1.0163386;2.6396074;
0;12:11:30:025;-5.7640405;2.134431;
0;12:11:30:035;0.6584055;6.125565;
0;12:11:30:045;10.793061;0.9983821;
0;12:11:30:056;-5.225345;1.6795325;
0;12:11:30:067;-9.581595;-2.9891608;
0;12:11:30:077;-1.2892777;-2.0219033;
0;12:11:30:088;5.595249;1.9871874;
0;12:11:30:098;-5.449203;0.39145198;
0;12:11:30:108;-5.09127;0.93613285;
0;12:11:30:118;-4.284424;2.6731262;
0;12:11:30:129;-3.3901896;3.7229836;
0;12:11:30:139;3.4105403;3.857059;
0;12:11:30:149;1.1659763;-1.7860745;
0;12:11:30:159;2.6994624;4.2305546;
0;12:11:30:169;-12.558785;-2.8993783;
0;12:11:30:180;5.142745;8.462306;
0;12:11:30:190;2.019509;1.0259154;
0;12:11:30:201;-1.174356;3.9959226;
0;12:11:30:211;1.7274165;0.688333;
0;12:11:30:222;2.9843724;0.15442601;
0;12:11:30:232;-5.4192758;-3.229778;
0;12:11:30:242;0.5506664;3.6260185;
0;12:11:30:253;4.4939165;1.4293385;
0;12:11:30:263;0.62608373;3.6176388;
0;12:11:30:273;-1.6699557;6.393716;
0;12:11:30:283;-1.1695676;4.0282445;
0;12:11:30:293;3.204639;6.206968;
0;12:11:30:303;-1.8124107;-3.4883518;
0;12:11:30:313;6.0357823;-3.550601;
0;12:11:30:324;0.82599956;-1.8686744;
0;12:11:30:334;-3.679888;3.5625722;
0;12:11:30:344;13.595474;0.5793968;
0;12:11:30:355;6.244078;-0.8403648;
0;12:11:30:365;-2.135628;5.354632;
0;12:11:30:376;2.3834279;-0.044292733;
0;12:11:30:386;3.2609026;3.393781;
0;12:11:30:396;5.613206;3.942053;
0;12:11:30:407;2.9376855;-10.120291;
0;12:11:30:417;10.016143;4.0258503;
0;12:11:30:428;9.050082;1.9153614;
0;12:11:30:438;7.019799;-1.9895816;
0;12:11:30:448;-2.9891608;1.2473791;
0;12:11:30:458;-1.6675615;6.301539;
0;12:11:30:468;1.7645266;4.594473;
0;12:11:30:479;10.129868;3.1495724;
0;12:11:30:489;7.5788455;4.4196963;
0;12:11:30:500;3.5577838;-2.1068976;
0;12:11:30:510;3.4440591;5.895722;
0;12:11:30:520;-2.528277;-0.80684596;
0;12:11:30:531;9.721656;3.9264908;
0;12:11:30:540;12.586318;4.9057193;
0;12:11:30:550;-0.676362;-5.5976434;
0;12:11:30:560;4.417302;1.1252748;
0;12:11:30:570;8.374918;-1.3946224;
0;12:11:30:580;0.38187516;-5.0122614;
0;12:11:30:590;12.142194;1.1827357;
0;12:11:30:600;-3.5470097;-6.909666;
0;12:11:30:610;9.816227;-0.4429273;
0;12:11:30:620;3.2680852;5.0900726;
0;12:11:30:630;3.6032736;1.6938977;
0;12:11:30:641;1.9512744;5.318719;
0;12:11:30:651;0.61171854;3.7912183;
0;12:11:30:661;3.3039982;7.3849154;
0;12:11:30:672;1.2282255;-1.5167267;
0;12:11:30:681;8.798691;4.1659107;
0;12:11:30:692;-0.48123455;-2.030283;
0;12:11:30:702;-9.76954;-2.778471;
0;12:11:30:712;1.2892777;-2.456451;
0;12:11:30:722;0.19512744;3.5458126;
0;12:11:30:733;8.694544;3.572149;
0;12:11:30:743;6.2500634;3.323152;
0;12:11:30:753;4.8973393;2.5342624;
0;12:11:30:764;-2.777274;-0.89543146;
0;12:11:30:774;0.10295067;-3.0813377;
0;12:11:30:785;0.8607155;2.8694508;
0;12:11:30:796;0.50996494;-3.466804;
0;12:11:30:806;5.556942;0.11133038;
0;12:11:30:816;2.6659436;-0.46806642;
0;12:11:30:827;-5.471948;-2.3834279;
0;12:11:30:837;2.6180596;1.745373;
0;12:11:30:847;-0.47524905;0.4297592;
0;12:11:30:859;-0.90979666;-2.5103204;
0;12:11:30:869;-3.9803603;-3.7062242;
0;12:11:30:880;-1.3874398;0.62967503;
0;12:11:30:891;-5.374983;-12.058397;
0;12:11:30:901;-7.3549876;-5.625177;
0;12:11:30:911;-1.9907787;3.9959226;
0;12:11:30:922;-12.300211;-10.6637745;
0;12:11:30:932;-2.5917234;5.2660465;
0;12:11:30:943;7.9188223;-0.4189853;
0;12:11:30:953;-3.7349546;-0.78170687;
0;12:11:30:964;-13.6170225;5.3402667;
0;12:11:30:974;-4.9895163;-1.8734628;
0;12:11:30:984;-13.962984;-5.8825536;
0;12:11:30:994;-1.7764976;-2.6360161;
0;12:11:31:004;-10.2974615;-2.9604304;
0;12:11:31:015;4.429273;-3.7840357;
0;12:11:31:025;4.429273;-3.7840357;
0;12:11:31:035;-9.949105;2.645593;
0;12:11:31:045;-15.037981;-10.024523;
0;12:11:31:055;-9.28232;-0.61411273;
0;12:11:31:066;-5.9280434;2.0566192;
0;12:11:31:076;0.11492168;-10.43872;
0;12:11:31:087;-5.221754;-7.275979;
0;12:11:31:097;-13.524845;6.567295;
0;12:11:31:107;-17.274166;-15.364789;
0;12:11:31:117;-14.358027;-6.435614;
0;12:11:31:127;-8.74961;7.654263;
0;12:11:31:137;-10.584765;-8.244433;
0;12:11:31:147;7.6171527;-4.0462008;
0;12:11:31:158;-10.597934;-0.020350715;
0;12:11:31:169;-4.9308586;-4.473566;
0;12:11:31:180;-19.470846;-1.2988545;
0;12:11:31:191;-22.262484;-5.309142;
0;12:11:31:200;-2.6408045;-5.1140146;
0;12:11:31:210;-12.113463;0.90261406;
0;12:11:31:221;-5.225345;-2.7940333;
0;12:11:31:231;-14.488512;-1.4030021;
0;12:11:31:242;-16.266207;-8.070854;
0;12:11:31:253;-17.105373;6.56131;
0;12:11:31:262;-2.5031378;-6.245275;
0;12:11:31:273;-9.838972;-7.147889;
0;12:11:31:284;-19.458874;4.569334;
0;12:11:31:295;-8.198944;-12.788629;
0;12:11:31:305;-9.057265;2.2697031;
0;12:11:31:316;-12.154165;6.4128695;
0;12:11:31:326;-16.466122;-8.845378;
0;12:11:31:337;-18.60175;-5.4779334;
0;12:11:31:347;-13.520057;0.62129533;
0;12:11:31:357;-11.632229;3.0322564;
0;12:11:31:367;-16.16565;-11.723208;
0;12:11:31:377;-14.713567;-3.2513258;
0;12:11:31:387;0.11133038;-7.603985;
0;12:11:31:397;-22.258894;-0.4381389;
0;12:11:31:407;-11.089942;2.0219033;
0;12:11:31:418;-7.073669;-7.181408;
0;12:11:31:429;-11.449073;-1.3275849;
0;12:11:31:439;-6.5804634;-1.8471266;
0;12:11:31:449;-0.6811504;-0.48123455;
0;12:11:31:459;0.712275;-5.5365915;
0;12:11:31:469;-4.867412;8.528147;
0;12:11:31:479;-9.980229;-9.733627;
0;12:11:31:489;-18.37071;-1.4915876;
0;12:11:31:500;0.16400282;4.177882;
0;12:11:31:509;-0.34117374;-0.94331545;
0;12:11:31:520;-3.252523;0.5590461;
0;12:11:31:531;2.9975405;-0.39863458;
0;12:11:31:540;-16.345215;6.7205243;
0;12:11:31:550;-11.63582;-1.0127473;
0;12:11:31:560;6.1411276;0.92176765;
0;12:11:31:571;-14.05995;3.1052797;
0;12:11:31:582;-2.954445;0.18555063;
0;12:11:31:592;2.3989902;6.241684;
0;12:11:31:603;-0.9744401;0.8810662;
0;12:11:31:613;5.5748987;4.936844;
0;12:11:31:622;-1.400608;0.65242;
0;12:11:31:633;-1.8579005;7.406463;
0;12:11:31:642;-5.019444;0.6835446;
0;12:11:31:653;5.628768;5.85502;
0;12:11:31:664;1.0199299;-1.8327614;
0;12:11:31:673;-4.867412;0.0035913025;
0;12:11:31:684;-5.5737014;4.2556934;
0;12:11:31:695;10.629059;5.412093;
0;12:11:31:705;-4.122815;-5.1583076;
0;12:11:31:716;-3.1531637;3.1986535;
0;12:11:31:726;-6.465542;3.7493198;
0;12:11:31:737;1.0821792;-0.05267244;
0;12:11:31:747;-3.503914;7.1502833;
0;12:11:31:757;-5.386954;2.4600422;
0;12:11:31:768;4.8542438;4.390966;
0;12:11:31:779;-3.606865;1.9967642;
0;12:11:31:790;2.6372132;-2.801216;
0;12:11:31:801;-8.135497;5.556942;
0;12:11:31:812;-2.433706;1.7357962;
0;12:11:31:822;7.6051817;4.547786;
0;12:11:31:833;-1.4173675;4.7405195;
0;12:11:31:844;5.3402667;4.4807487;
0;12:11:31:855;-8.623915;-0.4201824;
0;12:11:31:864;9.006987;2.8491;
0;12:11:31:875;-1.721431;-2.0638018;
0;12:11:31:886;0.08379706;3.2752678;
0;12:11:31:896;-3.7708676;-2.349909;
0;12:11:31:906;-4.654328;-1.3144168;
0;12:11:31:916;-0.076614454;-2.2134395;
0;12:11:31:926;-0.51475334;4.261679;
0;12:11:31:937;-0.40581718;5.8478374;
0;12:11:31:948;-1.3060371;8.342596;
0;12:11:31:958;-0.2896984;-2.7090392;
0;12:11:31:968;1.8507179;3.0478187;
0;12:11:31:979;-1.6220716;1.4987702;
0;12:11:31:989;-7.431602;0.89303726;
0;12:11:31:999;-2.3247697;1.328782;
0;12:11:32:010;-1.5622166;3.715801;
0;12:11:32:020;-1.9644425;0.9959879;
0;12:11:32:030;-3.2118216;4.876989;
0;12:11:32:041;-6.5589156;1.2509704;
0;12:11:32:051;0.4429273;4.1419687;
0;12:11:32:062;-7.088034;-0.6727707;
0;12:11:32:073;-3.4608185;-2.0626047;
0;12:11:32:085;0.8714894;-8.566454;
0;12:11:32:095;-0.11252748;1.4568717;
0;12:11:32:105;-2.5773582;0.5315128;
0;12:11:32:116;-14.581885;-4.959589;
0;12:11:32:126;-3.7301662;2.360683;
0;12:11:32:136;2.9269116;1.9740193;
0;12:11:32:146;-2.1021092;-4.4196963;
0;12:11:32:156;1.2988545;6.979098;
0;12:11:32:166;1.3958195;-1.7729063;
0;12:11:32:177;-8.4587145;-4.8626237;
0;12:11:32:187;-13.7127905;-2.554613;
0;12:11:32:197;4.4208937;7.1275387;
0;12:11:32:207;1.7513585;5.7520695;
0;12:11:32:217;-1.6184803;8.221688;
0;12:11:32:227;1.3946224;5.1367598;
0;12:11:32:238;-3.5936968;7.121553;
0;12:11:32:249;-8.686164;-0.58538234;
0;12:11:32:260;-8.248025;5.187038;
0;12:11:32:271;-7.3992805;-1.079785;
0;12:11:32:282;6.692991;6.703765;
0;12:11:32:293;-0.92057055;-3.9576154;
0;12:11:32:303;7.00304;0.49919105;
0;12:11:32:314;-2.0374656;-7.967903;
0;12:11:32:324;8.397662;-1.447295;
0;12:11:32:334;-4.8853683;-4.021062;
0;12:11:32:345;6.6079965;1.7621324;
0;12:11:32:355;-8.054094;1.9859903;
0;12:11:32:366;-1.6519991;-0.260968;
0;12:11:32:376;1.3215994;3.8402996;
0;12:11:32:387;-8.823831;1.258153;
0;12:11:32:397;-3.6655228;3.4763808;
0;12:11:32:407;-5.1882353;-3.1435869;
0;12:11:32:417;-7.169437;4.9344497;
0;12:11:32:428;-2.0171149;0.051475335;
0;12:11:32:439;1.3670892;-1.4676456;
0;12:11:32:450;1.0115502;3.0621839;
0;12:11:32:460;7.8948803;2.9317;
0;12:11:32:471;0.5363012;6.3302693;
0;12:11:32:482;-10.338163;1.9405005;
0;12:11:32:493;0.19752164;3.6631286;
0;12:11:32:504;-6.2859764;2.585738;
0;12:11:32:514;-9.029732;-1.4640543;
0;12:11:32:525;-0.59735334;4.9643774;
0;12:11:32:536;-1.1216835;-8.028955;
0;12:11:32:546;-1.2844892;-2.123657;
0;12:11:32:557;0.35673606;-4.175488;
0;12:11:32:568;1.7812861;3.7193923;
0;12:11:32:578;11.118672;2.1763294;
0;12:11:32:588;-1.804031;6.1866174;
0;12:11:32:599;-0.6452374;2.3511062;
0;12:11:32:609;-11.1174755;1.4748282;
0;12:11:32:619;-0.5686229;-0.7350199;
0;12:11:32:630;-2.19668;-9.297882;
0;12:11:32:640;2.4791958;0.06823475;
0;12:11:32:651;-1.0570401;-5.7125654;
0;12:11:32:661;-6.6307416;5.7724204;
0;12:11:32:672;4.7429137;7.917625;
0;12:11:32:681;1.1444284;-0.7350199;
0;12:11:32:692;2.2361844;6.8306575;
0;12:11:32:701;-4.981137;-7.398083;
0;12:11:32:711;-2.4612393;-4.337096;
0;12:11:32:721;-1.412579;-1.7046716;
0;12:11:32:731;-1.6256629;-2.8993783;
0;12:11:32:741;2.1619642;0.7194576;
0;12:11:32:751;1.459266;6.6774287;
0;12:11:32:762;-3.1232362;-0.49200845;
0;12:11:32:773;-0.51834464;-0.9768343;
0;12:11:32:784;-1.2306197;3.4404678;
0;12:11:32:794;1.6484078;4.4244847;
0;12:11:32:805;-6.041768;-2.6288335;
0;12:11:32:816;6.075287;-3.2836475;
0;12:11:32:826;7.9248075;-1.5382746;
0;12:11:32:836;-2.0362685;-4.349067;
0;12:11:32:847;-0.4201824;-0.58657944;
0;12:11:32:857;0.62368953;2.4911668;
0;12:11:32:867;7.098808;-0.50996494;
0;12:11:32:878;7.08564;8.269572;
0;12:11:32:888;4.948815;-3.9217024;
0;12:11:32:899;6.1890116;5.4683566;
0;12:11:32:910;-0.11851298;-6.2763996;
0;12:11:32:920;-1.9788077;-3.6367924;
0;12:11:32:931;1.9009962;-0.33279404;
0;12:11:32:941;8.456321;3.0885203;
0;12:11:32:951;8.656237;4.5561657;
0;12:11:32:962;-2.6204538;3.8630445;
0;12:11:32:972;6.6187706;9.355343;
0;12:11:32:982;-3.0370448;0.7086837;
0;12:11:32:992;2.598906;0.94810385;
0;12:11:33:002;19.694704;1.532289;
0;12:11:33:013;10.341754;-6.4188547;
0;12:11:33:024;0.18076223;2.4384944;
0;12:11:33:033;14.69561;-1.7310078;
0;12:11:33:044;2.1990743;3.1962593;
0;12:11:33:054;6.2883706;3.3842041;
0;12:11:33:064;4.259285;-2.0649989;
0;12:11:33:074;-2.0398598;-1.4640543;
0;12:11:33:084;5.9304376;3.9252937;
0;12:11:33:095;-0.130484;-2.3187842;
0;12:11:33:106;9.415198;-3.6176388;
0;12:11:33:117;3.4201171;1.7310078;
0;12:11:33:128;7.860164;-3.228581;
0;12:11:33:138;3.2261868;-0.2825158;
0;12:11:33:149;9.888053;1.1216835;
0;12:11:33:160;7.0449386;2.778471;
0;12:11:33:170;5.305551;1.4329298;
0;12:11:33:181;0.23702596;0.6356605;
0;12:11:33:191;6.5361705;5.5222263;
0;12:11:33:202;-0.7374141;2.0386627;
0;12:11:33:213;1.6759412;-0.81043726;
0;12:11:33:223;8.6334915;-0.7529764;
0;12:11:33:234;-2.9580362;-1.7202339;
0;12:11:33:245;-1.9907787;-1.4496891;
0;12:11:33:256;0.35793316;2.8898015;
0;12:11:33:266;1.5849615;3.2034419;
0;12:11:33:276;2.8191724;2.348712;
0;12:11:33:286;-3.1627405;-3.110068;
0;12:11:33:297;-3.1543608;1.2090719;
0;12:11:33:308;-1.4664485;-3.9959226;
0;12:11:33:319;3.693056;-1.8938135;
0;12:11:33:330;-1.5801731;1.0486604;
0;12:11:33:340;4.8602295;-0.07182605;
0;12:11:33:351;1.3862427;6.679823;
0;12:11:33:361;-2.8502972;-2.4121583;
0;12:11:33:371;4.8997335;-0.7529764;
0;12:11:33:381;4.4244847;-0.34356794;
0;12:11:33:391;-2.2816741;-4.0138793;
0;12:11:33:402;6.232107;3.4081461;
0;12:11:33:413;-8.139089;-5.0397944;
0;12:11:33:423;-5.7544637;-1.1133038;
0;12:11:33:434;-3.513491;-3.5063083;
0;12:11:33:445;-5.3642087;-4.772841;
0;12:11:33:455;0.82240826;-2.1404164;
0;12:11:33:466;-6.847417;2.2110453;
0;12:11:33:477;-11.921927;-8.735245;
0;12:11:33:487;-12.637794;-5.067328;
0;12:11:33:498;2.6755204;0.7589619;
0;12:11:33:508;-16.476896;-6.742072;
0;12:11:33:518;4.009091;-2.8574798;
0;12:11:33:529;-15.436615;5.7604494;
0;12:11:33:539;-4.261679;-6.160281;
0;12:11:33:550;6.8402343;-5.1702785;
0;12:11:33:560;-22.246922;5.342661;
0;12:11:33:570;2.1799207;-12.027272;
0;12:11:33:580;0.93852705;-7.5812397;
0;12:11:33:590;-16.326061;7.654263;
0;12:11:33:601;-6.513426;-11.621455;
0;12:11:33:611;4.620809;-2.6898856;
0;12:11:33:621;-16.49605;-0.581791;
0;12:11:33:631;-7.7093296;-6.326678;
0;12:11:33:641;7.9475527;-3.5194764;
0;12:11:33:652;-16.982073;9.68694;
0;12:11:33:663;-22.55338;4.19943;
0;12:11:33:673;-9.012972;-8.99741;
0;12:11:33:684;-6.131551;-3.3303347;
0;12:11:33:694;-10.832565;10.710462;
0;12:11:33:705;-4.581305;-13.077129;
0;12:11:33:716;-1.5298948;-3.582923;
0;12:11:33:726;-16.57865;-2.6743233;
0;12:11:33:737;7.6363063;4.155137;
0;12:11:33:747;6.537368;3.527856;
0;12:11:33:757;-11.708843;-1.5562311;
0;12:11:33:767;-12.191275;1.4628572;
0;12:11:33:778;1.4293385;-7.0964136;
0;12:11:33:789;-22.432472;-3.4883518;
0;12:11:33:799;-15.472528;4.43885;
0;12:11:33:810;-20.64999;-11.172543;
0;12:11:33:820;1.8052281;0.6368576;
0;12:11:33:831;4.0282445;-3.539827;
0;12:11:33:841;3.1794999;2.1775265;
0;12:11:33:852;-3.502717;-3.4859576;
0;12:11:33:862;-20.951658;4.104859;
0;12:11:33:873;-26.609158;-1.234211;
0;12:11:33:883;-2.5941176;-4.2880154;
0;12:11:33:893;-22.535423;0.05746084;
0;12:11:33:903;19.607315;2.2254105;
0;12:11:33:914;17.341204;6.8653736;
0;12:11:33:925;-20.63802;-3.5350387;
0;12:11:33:935;-20.147207;-6.7564373;
0;12:11:33:945;-15.386337;0.4165911;
0;12:11:33:956;-3.1603463;-12.318168;
0;12:11:33:966;-22.55338;-2.2732944;
0;12:11:33:977;-23.355438;-5.813122;
0;12:11:33:987;-13.666103;-7.606379;
0;12:11:33:997;-28.034904;-6.7708025;
0;12:11:34:007;-10.684125;-4.5262384;
0;12:11:34:017;-2.0027497;8.167819;
0;12:11:34:027;4.793192;5.2289367;
0;12:11:34:037;-5.7963624;-5.1379566;
0;12:11:34:047;-5.816713;9.466674;
0;12:11:34:057;-5.1463366;-2.6539726;
0;12:11:34:068;-6.7360864;7.4711065;
0;12:11:34:079;-20.335152;3.3722332;
0;12:11:34:090;-12.360066;-8.186973;
0;12:11:34:100;-6.0130377;4.5178585;
0;12:11:34:110;-13.88637;4.417302;
0;12:11:34:121;-12.106281;5.8454432;
0;12:11:34:132;-10.301053;4.746505;
0;12:11:34:143;-7.351396;1.8183962;
0;12:11:34:153;-5.3282957;11.672931;
0;12:11:34:164;-0.9504981;7.3047094;
0;12:11:34:174;-4.618415;6.0106435;
0;12:11:34:185;-4.5741224;4.122815;
0;12:11:34:196;-3.0813377;2.6719291;
0;12:11:34:206;-1.4496891;8.143877;
0;12:11:34:216;3.405752;5.4061074;
0;12:11:34:227;-3.3028011;5.449203;
0;12:11:34:237;-5.85502;-0.8439561;
0;12:11:34:247;11.392809;0.4165911;
0;12:11:34:257;1.2366052;-5.875371;
0;12:11:34:268;1.0271125;-6.2704144;
0;12:11:34:279;5.9926867;0.25498247;
0;12:11:34:290;2.2110453;5.553351;
0;12:11:34:300;-2.146402;1.5885528;
0;12:11:34:311;0.866701;5.2720323;
0;12:11:34:322;-5.3043537;1.5227122;
0;12:11:34:332;-0.23104046;6.063316;
0;12:11:34:343;-1.13964;1.6639702;
0;12:11:34:353;-5.932832;-2.043451;
0;12:11:34:364;2.8455088;0.91458505;
0;12:11:34:375;-5.257667;-3.13401;
0;12:11:34:385;0.19871874;0.37828386;
0;12:11:34:396;-4.783615;1.7753005;
0;12:11:34:407;-10.96305;0.045489833;
0;12:11:34:417;-6.707356;1.6675615;
0;12:11:34:428;-1.6986861;3.8271315;
0;12:11:34:438;-8.882488;-3.5565867;
0;12:11:34:449;-6.6510925;1.3347675;
0;12:11:34:459;-6.211756;-0.17477672;
0;12:11:34:470;-1.8112136;0.58777654;
0;12:11:34:481;-7.065289;0.6691794;
0;12:11:34:491;-10.879252;-0.4225766;
0;12:11:34:502;-4.736928;-0.45968673;
0;12:11:34:513;-0.29807812;5.2157683;
0;12:11:34:523;-3.4919431;-1.4317327;
0;12:11:34:533;-3.05141;-2.1942859;
0;12:11:34:544;-8.340201;2.5079262;
0;12:11:34:554;10.305841;3.3602622;
0;12:11:34:565;-0.29688102;-2.1751323;
0;12:11:34:575;-16.073473;-1.1779473;
0;12:11:34:586;-5.861006;-0.02633622;
0;12:11:34:597;-10.267534;0.2753332;
0;12:11:34:607;-6.247669;-0.49919105;
0;12:11:34:617;-1.9572599;-0.94690675;
0;12:11:34:628;-9.758766;-1.9668367;
0;12:11:34:638;-5.4899044;2.4708161;
0;12:11:34:649;-17.402254;-0.15682021;
0;12:11:34:660;-2.1811178;-1.091756;
0;12:11:34:670;-8.310274;-3.204639;
0;12:11:34:680;2.4756045;3.9516299;
0;12:11:34:691;-5.267244;0.997185;
0;12:11:34:702;-2.3056161;4.6244006;
0;12:11:34:713;-4.0940847;-0.06344634;
0;12:11:34:723;-5.923255;1.0163386;
0;12:11:34:733;-3.8055837;-0.7290344;
0;12:11:34:744;5.4444146;6.007052;
0;12:11:34:755;-11.389217;-4.298789;
0;12:11:34:764;4.4759603;7.8493905;
0;12:11:34:775;-7.3430166;-1.1360487;
0;12:11:34:786;1.4784195;-2.3953989;
0;12:11:34:797;-9.323022;-7.3083005;
0;12:11:34:807;-3.122039;1.79206;
0;12:11:34:818;1.2330139;-4.510676;
0;12:11:34:829;-4.297592;-1.1168951;
0;12:11:34:839;-6.420052;-2.4899697;
0;12:11:34:850;6.181829;-6.939594;
0;12:11:34:861;-6.090849;6.2404866;
0;12:11:34:872;-6.367379;1.4077905;
0;12:11:34:883;4.8937483;4.5633483;
0;12:11:34:893;5.85502;3.4464533;
0;12:11:34:904;6.8127007;-1.2246342;
0;12:11:34:915;4.435259;1.3694834;
0;12:11:34:926;2.7832594;5.1846437;
0;12:11:34:937;-8.931569;-1.1133038;
0;12:11:34:947;-1.3275849;2.9592333;
0;12:11:34:957;4.999093;6.172252;
0;12:11:34:968;4.64116;4.771644;
0;12:11:34:979;11.962628;5.519832;
0;12:11:34:990;-0.5315128;-2.554613;
0;12:11:35:001;-6.167464;-7.550115;
0;12:11:35:012;-4.247314;2.60968;
0;12:11:35:023;-5.4803276;2.1775265;
0;12:11:35:034;0.20470424;0.29568392;
0;12:11:35:044;7.443573;6.706159;
0;12:11:35:055;10.611102;3.539827;
0;12:11:35:065;-0.2825158;-4.795586;
0;12:11:35:076;1.3192052;-3.9133227;
0;12:11:35:087;5.081693;-1.2186487;
0;12:11:35:097;3.8031895;0.61052144;
0;12:11:35:108;-6.203377;2.2397757;
0;12:11:35:119;11.903971;-3.3063924;
0;12:11:35:129;6.4308257;1.316811;
0;12:11:35:139;-2.2385786;6.754043;
0;12:11:35:150;1.9991584;1.0151415;
0;12:11:35:160;3.0418332;1.8698715;
0;12:11:35:171;0.6631939;4.394557;
0;12:11:35:181;2.1380222;-2.2864625;
0;12:11:35:192;3.2944214;2.6970682;
0;12:11:35:203;4.6926355;1.4317327;
0;12:11:35:213;0.46567222;5.433641;
0;12:11:35:224;1.8148049;-1.9512744;
0;12:11:35:234;6.5696893;4.2221746;
0;12:11:35:245;9.928755;-2.3798366;
0;12:11:35:256;4.985925;1.9620483;
0;12:11:35:266;4.1383777;-4.1695023;
0;12:11:35:276;6.3063273;-1.5526398;
0;12:11:35:286;0.6967127;-4.2413282;
0;12:11:35:297;2.6599581;-1.2533646;
0;12:11:35:308;8.580819;0.5650316;
0;12:11:35:319;-6.453571;-3.6032736;
0;12:11:35:329;7.574057;5.497087;
0;12:11:35:340;4.701015;3.4680011;
0;12:11:35:349;16.614563;5.081693;
0;12:11:35:360;-1.3192052;-6.2488666;
0;12:11:35:370;-4.2796354;-4.6399627;
0;12:11:35:381;14.796166;2.9400797;
0;12:11:35:392;-10.7116585;8.72088;
0;12:11:35:402;-11.5077305;-3.1783028;
0;12:11:35:413;1.8136078;3.5553896;
0;12:11:35:423;13.241133;11.886014;
0;12:11:35:434;6.8749504;6.83784;
0;12:11:35:445;-5.3199162;-4.485537;
0;12:11:35:455;0.91817635;-0.6356605;
0;12:11:35:465;-4.915296;-1.1827357;
0;12:11:35:476;6.3338604;-5.6982;
0;12:11:35:486;1.7034745;0.56982;
0;12:11:35:497;3.776853;-5.0254292;
0;12:11:35:507;2.5270798;4.554969;
0;12:11:35:518;9.437943;5.434838;
0;12:11:35:528;-2.6300306;-6.325481;
0;12:11:35:539;11.798626;8.730456;
0;12:11:35:549;0.23702596;-6.851008;
0;12:11:35:559;5.613206;6.1902084;
0;12:11:35:569;-5.0146556;1.1133038;
0;12:11:35:580;-6.053739;4.7740383;
0;12:11:35:590;6.817489;-3.5075054;
0;12:11:35:600;-4.2521024;-5.1463366;
0;12:11:35:610;11.865664;-1.7477672;
0;12:11:35:620;-6.9252286;-7.9104424;
0;12:11:35:631;-10.475829;7.8865004;
0;12:11:35:642;-6.754043;-1.2868834;
0;12:11:35:653;5.400122;3.6727054;
0;12:11:35:663;0.11971009;1.0247183;
0;12:11:35:673;-11.008539;-0.4285621;
0;12:11:35:684;1.1240777;5.49589;
0;12:11:35:695;-9.719262;-2.3582888;
0;12:11:35:705;-6.5601125;8.930372;
0;12:11:35:715;2.9472623;-0.02633622;
0;12:11:35:726;-10.479421;3.9755719;
0;12:11:35:736;-9.816227;-2.8083985;
0;12:11:35:747;-9.144653;1.6687586;
0;12:11:35:757;-0.10175357;2.7257986;
0;12:11:35:768;-5.583278;-0.82121116;
0;12:11:35:778;-3.2812533;-4.3622355;
0;12:11:35:789;5.5581393;-2.967613;
0;12:11:35:799;-5.392939;-0.3842694;
0;12:11:35:810;-7.1490865;2.0027497;
0;12:11:35:820;-2.2122424;-1.5658079;
0;12:11:35:831;-2.3810337;0.7745243;
0;12:11:35:841;-2.1164744;3.8295257;
0;12:11:35:852;6.235698;-7.651869;
0;12:11:35:863;-0.044292733;-2.754529;
0;12:11:35:874;3.9121256;-0.38307226;
0;12:11:35:884;-2.6384103;3.5757403;
0;12:11:35:895;-8.289924;3.3602622;
0;12:11:35:906;1.2485762;2.336741;
0;12:11:35:916;-3.8498764;6.054936;
0;12:11:35:926;0.47285482;1.3359646;
0;12:11:35:936;0.79128367;-6.7133417;
0;12:11:35:946;-6.375759;-2.0398598;
0;12:11:35:956;0.14963761;-2.0326772;
0;12:11:35:966;-2.2266076;-1.8375498;
0;12:11:35:977;-7.1059904;6.307524;
0;12:11:35:987;-0.2621651;-2.7269957;
0;12:11:35:997;13.005303;2.9879637;
0;12:11:36:007;4.7907977;-1.7357962;
0;12:11:36:017;-1.7681179;-5.7245364;
0;12:11:36:027;-2.9963434;5.529409;
0;12:11:36:038;2.018312;4.2042184;
0;12:11:36:048;9.022549;-0.91219085;
0;12:11:36:058;0.30286652;7.526173;
0;12:11:36:069;-8.365341;-3.2716765;
0;12:11:36:080;-7.560889;-13.8959465;
0;12:11:36:091;12.637794;-6.823475;
0;12:11:36:102;-15.1696615;-4.1802764;
0;12:11:36:112;-5.919664;-20.458454;
0;12:11:36:123;-1.1085154;3.7840357;
0;12:11:36:134;10.278308;-3.6212301;
0;12:11:36:144;11.428721;-8.0445175;
0;12:11:36:155;19.913773;8.639477;
0;12:11:36:165;-10.0269165;-5.602432;
0;12:11:36:175;4.5022964;11.657368;
0;12:11:36:186;4.679467;15.778986;
0;12:11:36:196;-20.378248;-3.1136594;
0;12:11:36:207;2.906561;15.764621;
0;12:11:36:217;5.507861;-4.6603136;
0;12:11:36:228;19.342756;11.427525;
0;12:11:36:238;16.711529;-3.1759086;
0;12:11:36:249;19.106926;-3.264494;
0;12:11:36:260;15.800534;0.6631939;
0;12:11:36:270;16.89229;-3.3183637;
0;12:11:36:281;8.465898;-15.429433;
0;12:11:36:292;14.344859;3.7337575;
0;12:11:36:302;14.753071;-39.2266;
0;12:11:36:313;34.057518;-20.397402;
0;12:11:36:323;12.98615;29.615078;
0;12:11:36:333;-25.712528;-4.4759603;
0;12:11:36:344;-39.213432;-18.201918;
0;12:11:36:355;-2.2170308;0.59855044;
1;12:11:36:365;9.913192;6.281188;
1;12:11:36:376;3.6583402;-0.08020575;
1;12:11:36:386;3.6583402;-0.08020575;
1;12:11:36:397;3.6583402;-0.08020575;
1;12:11:36:407;3.6583402;-0.08020575;
1;12:11:36:418;-5.547365;-0.16879122;
1;12:11:36:428;-18.860323;-2.007538;
1;12:11:36:439;-18.860323;-2.007538;
1;12:11:36:449;-18.860323;-2.007538;
1;12:11:36:460;-18.860323;-2.007538;
1;12:11:36:470;-14.155718;-5.261258;
1;12:11:36:480;-14.155718;-5.261258;
1;12:11:36:490;-14.155718;-5.261258;
1;12:11:36:500;-14.155718;-5.261258;
1;12:11:36:511;-3.7984009;-7.6949644;
1;12:11:36:520;-6.0082493;-1.555034;
1;12:11:36:530;-1.8136078;-2.7365725;
1;12:11:36:540;-2.19668;-1.7525556;
1;12:11:36:550;-10.362105;-1.7310078;
1;12:11:36:561;-4.344279;0.62249243;
1;12:11:36:571;-4.6722846;-3.6774938;
1;12:11:36:581;0.2645593;4.220978;
1;12:11:36:592;-1.3108255;-0.94331545;
1;12:11:36:603;-15.750256;-3.0561984;
1;12:11:36:614;-5.08289;-1.6412252;
1;12:11:36:624;-10.833763;-4.4220905;
1;12:11:36:634;-3.2010477;-3.526659;
1;12:11:36:644;-5.1666875;-0.30765492;
1;12:11:36:654;-10.012551;-4.782418;
1;12:11:36:664;-4.367024;-3.2309752;
1;12:11:36:674;-2.5270798;-2.858677;
1;12:11:36:684;-8.005013;-1.1288661;
1;12:11:36:694;-3.9264908;-1.1432313;
1;12:11:36:705;-1.1815386;1.9548657;
1;12:11:36:715;-2.4468741;1.9309237;
1;12:11:36:725;-6.554127;-0.37588966;
1;12:11:36:735;-3.7086184;1.6340426;
1;12:11:36:746;-8.986636;4.485537;
1;12:11:36:756;-4.173094;1.8112136;
1;12:11:36:767;0.748188;5.7736173;
1;12:11:36:777;-3.5685577;0.88944596;
1;12:11:36:787;-0.51954174;0.24420857;
1;12:11:36:797;-0.107739076;4.3777976;
1;12:11:36:807;-2.9245174;-1.6986861;
1;12:11:36:817;0.8774749;4.489128;
1;12:11:36:828;-6.6163764;2.5594015;
1;12:11:36:838;2.303222;8.614338;
1;12:11:36:849;-0.0023942017;0.1592144;
1;12:11:36:859;-1.8327614;1.7082629;
1;12:11:36:870;0.78170687;0.5255273;
1;12:11:36:881;-2.079364;5.397728;
1;12:11:36:891;-0.48482585;1.9788077;
1;12:11:36:901;-1.3251907;3.144784;
1;12:11:36:912;2.5115175;-0.08140286;
1;12:11:36:923;1.3551182;3.4213142;
1;12:11:36:934;0.9876082;-0.39863458;
1;12:11:36:945;-3.6415808;4.9045224;
1;12:11:36:957;4.7429137;2.3930047;
1;12:11:36:967;-2.0853498;-1.1611878;
1;12:11:36:978;5.094861;2.2816741;
1;12:11:36:989;2.5115175;1.4089876;
1;12:11:37:000;-2.4229321;2.328361;
1;12:11:37:012;-6.495469;3.0561984;
1;12:11:37:022;-0.7625532;1.3455414;
1;12:11:37:032;5.5341973;0.7386112;
1;12:11:37:043;-1.1133038;1.5466543;
1;12:11:37:053;-1.3084313;-0.021547815;
1;12:11:37:063;0.38307226;2.231396;
1;12:11:37:074;1.7250223;3.5122938;
1;12:11:37:084;1.6699557;-2.4839842;
1;12:11:37:094;4.0378213;-0.4237737;
1;12:11:37:105;2.835932;2.5474305;
1;12:11:37:120;-4.698621;-2.2218192;
1;12:11:37:130;1.3156139;-5.734113;
1;12:11:37:141;3.4356794;4.1455603;
1;12:11:37:152;-0.8690952;3.4261026;
1;12:11:37:163;-3.3159695;6.045359;
1;12:11:37:174;-3.3518825;5.568913;
1;12:11:37:184;0.545878;3.8379054;
1;12:11:37:194;-3.2381577;2.267309;
1;12:11:37:204;4.2556934;-4.2640734;
1;12:11:37:215;6.9348054;-0.748188;
1;12:11:37:226;5.3354783;0.4321534;
1;12:11:37:236;-4.31914;0.92775315;
1;12:11:37:246;-0.9983821;8.98903;
1;12:11:37:257;-7.4627266;-4.7429137;
1;12:11:37:267;6.0836663;2.5198972;
1;12:11:37:278;2.432509;-1.6639702;
1;12:11:37:288;-3.3997664;-2.7162218;
1;12:11:37:299;-2.7988217;-0.08499416;
1;12:11:37:309;-1.1839328;-0.49320555;
1;12:11:37:319;2.3953989;-0.92775315;
1;12:11:37:330;6.483498;-0.5638345;
1;12:11:37:341;7.1634517;-0.09696517;
1;12:11:37:351;7.8876977;-0.15083471;
1;12:11:37:361;-1.7405846;-0.46447513;
1;12:11:37:371;2.6420016;-1.423353;
1;12:11:37:381;0.5351041;0.19393034;
1;12:11:37:391;4.6938324;-3.0023289;
1;12:11:37:401;2.0362685;3.2345665;
1;12:11:37:411;9.903615;-3.9803603;
1;12:11:37:422;13.327324;-0.7625532;
1;12:11:37:432;5.222951;-3.1902738;
1;12:11:37:442;7.5968018;-5.129577;
1;12:11:37:452;3.6619315;-1.7836803;
1;12:11:37:463;0.79966336;-3.2357635;
1;12:11:37:474;9.877279;-2.1811178;
1;12:11:37:484;10.988189;-2.6922798;
1;12:11:37:494;4.0402155;-1.6101006;
1;12:11:37:505;8.585608;0.92416185;
1;12:11:37:516;9.950302;-1.5693992;
1;12:11:37:526;1.851915;1.0654198;
1;12:11:37:537;4.698621;-1.4951789;
1;12:11:37:548;5.2959743;0.2789245;
1;12:11:37:558;11.504139;-3.2860417;
1;12:11:37:568;8.573636;5.374983;
1;12:11:37:578;2.0099323;0.51116204;
1;12:11:37:588;3.7732618;-0.5446809;
1;12:11:37:599;2.0530279;3.2597055;
1;12:11:37:609;7.687782;-0.4141969;
1;12:11:37:620;4.782418;1.2006922;
1;12:11:37:631;3.1878796;0.25617957;
1;12:11:37:641;-8.259995;-0.15083471;
1;12:11:37:652;2.6791117;-2.6647465;
1;12:11:37:663;3.4500446;-4.6662993;
1;12:11:37:673;-0.21547815;4.473566;
1;12:11:37:683;1.6915035;1.5490485;
1;12:11:37:694;7.6973586;2.6862943;
1;12:11:37:704;-3.7181952;-2.136825;
1;12:11:37:715;2.2170308;-3.608062;
1;12:11:37:725;-0.8439561;1.34195;
1;12:11:37:736;1.1575965;0.23463176;
1;12:11:37:746;-1.8854338;0.9888053;
1;12:11:37:757;-1.4185646;0.92535895;
1;12:11:37:767;1.7729063;-0.7230489;
1;12:11:37:778;-6.361394;1.0726024;
1;12:11:37:787;2.1990743;-3.2848446;
1;12:11:37:797;-3.3985693;2.823961;
1;12:11:37:808;8.085219;-0.8511387;
1;12:11:37:818;-5.449203;5.2002063;
1;12:11:37:828;-1.8842367;3.3997664;
1;12:11:37:839;-1.7178397;0.62009823;
1;12:11:37:848;-3.667917;2.719813;
1;12:11:37:858;-6.9228344;-2.6288335;
1;12:11:37:868;-6.805518;-1.1468226;
1;12:11:37:878;-6.841431;-0.80325466;
1;12:11:37:889;-4.1132383;-0.02633622;
1;12:11:37:900;-0.37828386;0.44891283;
1;12:11:37:910;-11.7543335;0.4249708;
1;12:11:37:921;-8.974665;-3.0310593;
1;12:11:37:931;-8.470686;-6.7624226;
1;12:11:37:941;-3.2812533;0.51954174;
1;12:11:37:952;-1.484405;3.441665;
1;12:11:37:963;-6.6762314;-4.320337;
1;12:11:37:973;-12.667721;-1.7142484;
1;12:11:37:984;-9.224859;-0.48841715;
1;12:11:37:994;-4.26527;1.6879122;
1;12:11:38:005;-7.9810715;-0.32321724;
1;12:11:38:016;-12.160151;-1.4329298;
1;12:11:38:026;-11.941081;-3.063381;
1;12:11:38:036;0.3196259;-1.0079589;
1;12:11:38:047;-2.871845;3.9252937;
1;12:11:38:058;-9.794679;-3.6715083;
1;12:11:38:068;-9.94312;0.05746084;
1;12:11:38:079;-3.6032736;0.93254155;
1;12:11:38:090;-8.784326;-0.7410054;
1;12:11:38:101;-9.870096;-0.9528923;
1;12:11:38:111;-10.9834;-2.7497406;
1;12:11:38:121;-5.3366756;-0.60693014;
1;12:11:38:131;-2.9161377;-1.541866;
1;12:11:38:142;-2.789245;0.06584055;
1;12:11:38:153;-3.442862;-0.24061728;
1;12:11:38:163;-7.2101383;-3.7840357;
1;12:11:38:174;-13.948619;-0.8583213;
1;12:11:38:184;-4.594473;1.8076223;
1;12:11:38:195;-2.4408886;0.023942016;
1;12:11:38:205;-0.8511387;1.5562311;
1;12:11:38:215;-5.9364233;-0.090979666;
1;12:11:38:225;-11.864467;0.9780314;
1;12:11:38:236;-3.252523;-4.4077253;
1;12:11:38:246;-9.421184;2.8574798;
1;12:11:38:257;-8.459911;0.15322891;
1;12:11:38:267;-11.286267;-2.3930047;
1;12:11:38:277;-2.5582044;1.0187328;
1;12:11:38:287;-5.052963;-0.15442601;
1;12:11:38:297;-5.5102553;0.10654198;
1;12:11:38:307;-6.7504516;-3.5565867;
1;12:11:38:318;-13.376405;2.2242134;
1;12:11:38:328;-6.5565214;-3.1244333;
1;12:11:38:338;-5.5760956;2.5438392;
1;12:11:38:349;-2.8083985;0.9672575;
1;12:11:38:360;-7.1826053;0.80086046;
1;12:11:38:370;-6.918046;-3.4464533;
1;12:11:38:381;-3.7828386;3.8977604;
1;12:11:38:391;-6.167464;-2.135628;
1;12:11:38:401;-7.6003933;0.21787235;
1;12:11:38:411;-6.895301;-1.5813702;
1;12:11:38:422;-3.5553896;-2.0829554;
1;12:11:38:432;-10.104729;1.2916719;
1;12:11:38:442;-1.0809821;-1.2198458;
1;12:11:38:453;-7.5285673;1.3347675;
1;12:11:38:463;-6.5445504;-3.7576995;
1;12:11:38:474;-9.508572;0.021547815;
1;12:11:38:485;1.0869676;-1.9560628;
1;12:11:38:496;-1.4317327;2.066196;
1;12:11:38:506;-1.4820108;1.4927847;
1;12:11:38:516;-8.087613;-1.9129672;
1;12:11:38:527;-4.593276;0.20709845;
1;12:11:38:537;-4.7620673;-2.4768016;
1;12:11:38:547;-5.6299653;3.0262709;
1;12:11:38:560;-5.6000376;-4.2221746;
1;12:11:38:570;-8.668207;-0.021547815;
1;12:11:38:581;-5.1726727;-1.4185646;
1;12:11:38:591;-0.50876784;4.086902;
1;12:11:38:602;-8.038532;-5.397728;
1;12:11:38:612;-1.6531962;0.90021986;
1;12:11:38:623;-3.383007;-0.94810385;
1;12:11:38:633;-3.4153287;2.8000188;
1;12:11:38:644;-9.8677025;0.9588778;
1;12:11:38:654;4.900931;-0.15203181;
1;12:11:38:665;-0.025139118;2.336741;
1;12:11:38:675;-9.949105;0.095768064;
1;12:11:38:686;3.2142158;-2.6647465;
1;12:11:38:697;-4.72376;0.16160862;
1;12:11:38:707;-3.4979286;-1.8746599;
1;12:11:38:717;-10.523713;0.9660604;
1;12:11:38:728;0.32441434;1.7884687;
1;12:11:38:739;3.5314474;0.20949265;
1;12:11:38:749;-5.626374;0.4405331;
1;12:11:38:760;-9.6845455;-1.8854338;
1;12:11:38:771;-5.068525;4.4328647;
1;12:11:38:782;4.8853683;-2.7018566;
1;12:11:38:791;-2.0841527;1.9405005;
1;12:11:38:802;-0.63206923;-0.8535329;
1;12:11:38:813;-6.8186865;-0.92655605;
1;12:11:38:822;3.6954503;1.7932571;
1;12:11:38:833;-4.9045224;-0.09816227;
1;12:11:38:843;1.6220716;3.8654387;
1;12:11:38:854;0.01316811;-3.7984009;
1;12:11:38:864;-3.5901055;3.25372;
1;12:11:38:875;-9.200917;-3.8989575;
1;12:11:38:885;-7.8386164;-2.6312277;
1;12:11:38:896;-2.835932;1.0414777;
1;12:11:38:907;-2.3894134;-2.1212628;
1;12:11:38:917;-4.972757;-0.011971008;
1;12:11:38:928;-1.508347;-2.0147207;
1;12:11:38:938;-2.8395233;1.8794483;
1;12:11:38:948;-10.436325;-3.1531637;
1;12:11:38:959;-10.254366;-1.9249382;
1;12:11:38:969;-6.155493;0.92895025;
1;12:11:38:980;2.256535;0.81043726;
1;12:11:38:991;-1.1264719;0.5518635;
1;12:11:39:001;-5.45878;-0.7781156;
1;12:11:39:011;-12.576741;1.5298948;
1;12:11:39:022;0.81642276;-2.0482395;
1;12:11:39:033;0.33638534;-0.700304;
1;12:11:39:043;-2.4265234;-3.145981;
1;12:11:39:053;-15.35641;-0.049081136;
1;12:11:39:064;-2.790442;2.4181437;
1;12:11:39:074;-0.6536171;0.5231331;
1;12:11:39:085;-2.3989902;2.0123265;
1;12:11:39:095;4.296395;-0.059855044;
1;12:11:39:106;1.8100165;0.6715736;
1;12:11:39:117;-5.60722;-0.32321724;
1;12:11:39:127;-7.237672;3.0933087;
1;12:11:39:138;1.661576;2.5354595;
1;12:11:39:149;4.3299136;-0.40102878;
1;12:11:39:159;5.446809;-0.6691794;
1;12:11:39:170;-3.618836;-0.09816227;
1;12:11:39:180;-1.9093759;2.5725696;
1;12:11:39:190;3.003526;0.24301147;
1;12:11:39:200;-1.9536686;-0.9983821;
1;12:11:39:210;-0.24660277;2.3786395;
1;12:11:39:221;3.1759086;-2.2816741;
1;12:11:39:231;0.62847793;-0.5734113;
1;12:11:39:242;-2.6671407;-0.33399114;
1;12:11:39:253;-3.6272156;-0.046686932;
1;12:11:39:262;3.5422213;4.047398;
1;12:11:39:272;2.9221232;0.8283938;
1;12:11:39:283;-1.2665327;1.0510546;
1;12:11:39:293;-3.0789435;-2.717419;
1;12:11:39:304;-7.5225816;5.258864;
1;12:11:39:314;-1.0737995;1.3814543;
1;12:11:39:325;5.6586957;2.099715;
1;12:11:39:335;2.1990743;-2.3307555;
1;12:11:39:346;0.7158663;-0.9564836;
1;12:11:39:356;-0.62847793;0.7338228;
1;12:11:39:366;-3.1519666;1.1300632;
1;12:11:39:377;2.030283;2.8898015;
1;12:11:39:388;4.679467;-4.177882;
1;12:11:39:398;-0.47764325;1.3132197;
1;12:11:39:409;-3.2501287;0.93014735;
1;12:11:39:420;5.3845596;0.027533319;
1;12:11:39:430;-1.9321208;-3.1495724;
1;12:11:39:441;1.4939818;4.559757;
1;12:11:39:452;3.8845923;0.842759;
1;12:11:39:463;5.5509567;2.208651;
1;12:11:39:473;-1.5921441;0.80205756;
1;12:11:39:484;-1.0247183;2.5127146;
1;12:11:39:495;3.642778;2.2457612;
1;12:11:39:505;1.4305356;-1.7788919;
1;12:11:39:516;1.6124948;1.9093759;
1;12:11:39:526;-0.050278235;2.3822308;
1;12:11:39:536;2.2409728;3.2968156;
1;12:11:39:547;7.0425444;-1.0702082;
1;12:11:39:557;-5.093664;0.49799395;
1;12:11:39:568;-9.139865;-1.5646108;
1;12:11:39:578;-0.1592144;2.2481554;
1;12:11:39:589;-0.089782566;-2.0087352;
1;12:11:39:600;3.6164417;0.19871874;
1;12:11:39:610;-0.9540894;-0.23822308;
1;12:11:39:620;-5.899313;1.9393034;
1;12:11:39:631;6.68102;-1.2677298;
1;12:11:39:642;-7.8589673;-2.2996306;
1;12:11:39:653;-5.8622026;-8.724471;
1;12:11:39:664;18.68794;12.923901;
1;12:11:39:675;14.389153;4.685453;
1;12:11:39:685;11.731588;2.2337902;
1;12:11:39:695;-4.733337;9.271546;
1;12:11:39:705;0.9780314;2.0649989;
1;12:11:39:716;-4.9296613;-4.8159366;
1;12:11:39:726;6.295553;2.5677812;
1;12:11:39:736;-3.702633;-6.06571;
1;12:11:39:747;1.661576;2.5570073;
1;12:11:39:759;2.111686;0.91937345;
1;12:11:39:769;-6.423643;3.466804;
1;12:11:39:780;0.9600749;1.7932571;
1;12:11:39:791;1.7429788;0.8870517;
1;12:11:39:801;5.0601454;-3.667917;
1;12:11:39:811;-4.537012;-3.728969;
1;12:11:39:821;-6.789956;0.91338795;
1;12:11:39:832;-0.439336;-0.48243165;
1;12:11:39:843;2.1631613;3.9121256;
1;12:11:39:854;-3.558981;1.4532804;
1;12:11:39:864;0.60573304;-0.25617957;
1;12:11:39:875;6.6774287;-5.225345;
1;12:11:39:886;1.8375498;-0.1436521;
1;12:11:39:896;-3.882198;-6.907272;
1;12:11:39:907;-1.8219875;-1.5622166;
1;12:11:39:925;2.4025815;2.2266076;
1;12:11:39:935;2.4025815;2.2266076;
1;12:11:39:945;-1.2808979;4.72376;
1;12:11:39:955;3.168726;4.629189;
1;12:11:39:966;-1.7585411;-4.951209;
1;12:11:39:976;-3.5182793;1.6843209;
1;12:11:39:986;-4.608838;-4.80636;
1;12:11:39:997;-11.245565;-2.719813;
1;12:11:40:007;-0.23942018;3.558981;
1;12:11:40:017;-6.6103907;-3.821146;
1;12:11:40:027;-6.6103907;-3.821146;
1;12:11:40:037;-7.6111674;2.80361;
1;12:11:40:048;-11.086351;-5.3115363;
1;12:11:40:059;-3.858256;-0.47524905;
1;12:11:40:068;-8.020576;-6.38773;
1;12:11:40:079;-7.65546;0.5231331;
1;12:11:40:090;-0.48362875;-7.0688806;
1;12:11:40:099;-23.766043;-8.8645315;
1;12:11:40:109;-6.0010667;-4.164714;
1;12:11:40:119;-5.6407394;-6.159084;
1;12:11:40:129;-5.731719;-4.724957;
1;12:11:40:139;-1.4341269;-7.192182;
1;12:11:40:149;-10.973824;6.6044054;
1;12:11:40:160;-10.21127;-5.279215;
1;12:11:40:170;-9.137471;-3.2393548;
1;12:11:40:181;-6.8282633;-1.412579;
1;12:11:40:191;-7.9104424;0.60693014;
1;12:11:40:201;-2.7868507;1.151611;
1;12:11:40:211;-23.369802;-5.9364233;
1;12:11:40:221;-22.357056;-5.282806;
1;12:11:40:231;-7.052121;0.2693477;
1;12:11:40:241;2.7665;-0.30166942;
1;12:11:40:252;-7.848193;-3.0370448;
1;12:11:40:262;-18.146852;-2.6360161;
1;12:11:40:272;-15.180436;-6.3661823;
1;12:11:40:282;-1.9177556;-1.3024458;
1;12:11:40:292;-15.970523;-7.691373;
1;12:11:40:302;3.5913026;-1.9249382;
1;12:11:40:312;-18.004396;-1.780089;
1;12:11:40:322;-8.02297;-6.597223;
1;12:11:40:338;3.3746274;1.7944542;
1;12:11:40:348;-3.347094;-2.0254946;
1;12:11:40:358;-14.635755;-0.6919243;
1;12:11:40:368;-14.289793;-0.581791;
1;12:11:40:378;-15.023616;-0.6907272;
1;12:11:40:388;-13.782222;2.6276364;
1;12:11:40:398;-8.696938;-2.9939492;
1;12:11:40:408;-11.845313;1.471237;
1;12:11:40:418;-2.480393;3.9875429;
1;12:11:40:428;-19.83596;-6.4487824;
1;12:11:40:442;-13.821727;0.48722005;
1;12:11:40:453;-12.509704;-3.264494;
1;12:11:40:463;3.1304188;-5.693412;
1;12:11:40:473;-4.6040497;-6.069301;
1;12:11:40:484;-7.013814;-2.930503;
1;12:11:40:494;-11.723208;-0.60693014;
1;12:11:40:504;-0.38067806;1.8662802;
1;12:11:40:514;4.7788267;-0.11971009;
1;12:11:40:525;-4.911705;2.885013;
1;12:11:40:535;0.5518635;4.307169;
1;12:11:40:545;-1.5394717;-1.8531121;
1;12:11:40:556;-6.003461;-3.4105403;
1;12:11:40:566;-3.2860417;-1.376666;
1;12:11:40:577;4.370615;-0.6596026;
1;12:11:40:587;-2.7928362;4.1826706;
1;12:11:40:597;-4.036624;1.5622166;
1;12:11:40:607;-6.4607534;-0.5626374;
1;12:11:40:617;8.604761;-3.0705638;
1;12:11:40:628;5.579687;-3.9121256;
1;12:11:40:638;2.0949266;4.607641;
1;12:11:40:649;0.049081136;1.4413095;
1;12:11:40:659;-7.1131735;1.0115502;
1;12:11:40:669;-1.6567876;0.3842694;
1;12:11:40:679;5.327099;-1.0151415;
1;12:11:40:690;1.2737153;-1.496376;
1;12:11:40:700;5.407305;2.645593;
1;12:11:40:711;-0.51834464;-4.6902413;
1;12:11:40:721;-9.42238;-3.5649664;
1;12:11:40:731;6.3697734;-1.5310919;
1;12:11:40:742;-9.02614;-1.1025299;
1;12:11:40:753;-2.5462334;0.29688102;
1;12:11:40:764;9.496601;1.0474633;
1;12:11:40:774;-5.3737855;-0.5722142;
1;12:11:40:785;-4.590882;0.06584055;
1;12:11:40:794;-7.5345526;-0.8475474;
1;12:11:40:805;4.6926355;-1.7369933;
1;12:11:40:816;1.1180922;1.5119383;
1;12:11:40:826;-2.327164;-1.9045875;
1;12:11:40:837;5.3366756;2.4109612;
1;12:11:40:847;-1.0103531;-3.5924997;
1;12:11:40:859;-5.7604494;0.47285482;
1;12:11:40:870;-3.7672763;0.39384618;
1;12:11:40:881;-4.4556093;1.8794483;
1;12:11:40:891;-4.2305546;2.2038627;
1;12:11:40:902;0.439336;0.46926352;
1;12:11:40:913;-1.3958195;-3.4500446;
1;12:11:40:923;-2.882619;1.7561469;
1;12:11:40:934;-6.1399302;-5.997475;
1;12:11:40:944;-9.178172;0.6679823;
1;12:11:40:955;2.4660277;-1.4879963;
1;12:11:40:966;-5.2385135;1.0414777;
1;12:11:40:976;-2.4025815;1.6831238;
1;12:11:40:987;-14.487314;-3.028665;
1;12:11:40:996;-12.897565;-0.3842694;
1;12:11:41:007;-6.884527;-0.94211835;
1;12:11:41:017;3.132813;1.9117701;
1;12:11:41:027;-13.057976;5.8562174;
1;12:11:41:038;-5.425261;1.3874398;
1;12:11:41:048;-3.620033;-2.9520507;
1;12:11:41:059;-2.0853498;-2.492364;
1;12:11:41:070;-7.7452426;-1.234211;
1;12:11:41:080;-7.6255326;-0.6823475;
1;12:11:41:091;1.2497733;3.940856;
1;12:11:41:101;-3.9959226;0.6907272;
1;12:11:41:112;5.0721164;1.2868834;
1;12:11:41:123;9.744401;0.11252748;
1;12:11:41:134;3.681085;2.15957;
1;12:11:41:145;0.29568392;4.537012;
1;12:11:41:156;5.2037973;-1.4987702;
1;12:11:41:165;-2.707842;-2.5091233;
1;12:11:41:175;0.39264908;-0.5363012;
1;12:11:41:185;3.833117;-0.61411273;
1;12:11:41:195;-6.2345014;0.4237737;
1;12:11:41:206;-11.019313;-1.2761095;
1;12:11:41:217;2.682703;1.2318168;
1;12:11:41:227;3.4727895;-0.59376204;
1;12:11:41:237;6.730101;-0.89303726;
1;12:11:41:248;-2.0638018;1.0630256;
1;12:11:41:259;0.45010993;0.1340753;
1;12:11:41:270;7.049727;0.7182605;
1;12:11:41:280;-5.6084175;0.8834604;
1;12:11:41:290;-0.05267244;-3.1435869;
1;12:11:41:301;1.5777789;0.7589619;
1;12:11:41:312;0.94930094;-2.669535;
1;12:11:41:323;5.697003;2.3139958;
1;12:11:41:334;-1.0426749;2.4672248;
1;12:11:41:344;-6.8869214;1.1336545;
1;12:11:41:355;2.1068976;-0.7661445;
1;12:11:41:365;12.044032;-2.0398598;
1;12:11:41:376;-4.396951;-5.1116204;
1;12:11:41:386;4.5777135;0.51116204;
1;12:11:41:397;-7.833828;-3.311181;
1;12:11:41:407;-0.7158663;-0.4237737;
1;12:11:41:418;7.098808;4.1395745;
1;12:11:41:428;3.7732618;4.413711;
1;12:11:41:439;5.100847;1.1971009;
1;12:11:41:450;5.5880666;4.1240125;
1;12:11:41:460;4.332308;-3.157952;
1;12:11:41:471;-6.4547677;-5.064934;
1;12:11:41:481;4.841076;4.710592;
1;12:11:41:492;-2.3786395;-4.5525746;
1;12:11:41:502;-1.1384429;3.0454245;
1;12:11:41:512;4.474763;2.767697;
1;12:11:41:523;0.31603462;1.0378864;
1;12:11:41:533;1.3958195;1.389834;
1;12:11:41:543;5.4863133;-1.271321;
1;12:11:41:553;0.36870706;-4.0162735;
1;12:11:41:563;-2.5342624;2.966416;
1;12:11:41:573;0.30526072;4.9045224;
1;12:11:41:583;0.7146692;0.5710171;
1;12:11:41:593;0.39504328;3.7576995;
1;12:11:41:604;0.22385786;-6.5098343;
1;12:11:41:615;4.8422728;-4.010288;
1;12:11:41:625;0.19871874;0.5255273;
1;12:11:41:636;-1.6938977;0.6631939;
1;12:11:41:647;3.6116533;2.4744074;
1;12:11:41:657;6.2632318;-2.054225;
1;12:11:41:668;-6.88333;-2.7736826;
1;12:11:41:678;1.7154455;1.8938135;
1;12:11:41:688;-0.5446809;4.8961425;
1;12:11:41:699;3.6954503;1.6101006;
1;12:11:41:710;-1.4796166;1.4089876;
1;12:11:41:721;-3.4272997;0.5410896;
1;12:11:41:731;0.50637364;-4.277241;
1;12:11:41:742;7.9930425;-3.7852328;
1;12:11:41:752;-2.9592333;-3.6595373;
1;12:11:41:763;-2.4468741;1.5239093;
1;12:11:41:773;-2.9137435;3.5877113;
1;12:11:41:783;-4.11683;1.9835961;
1;12:11:41:794;-4.52145;3.0370448;
1;12:11:41:804;12.761095;-2.5366566;
1;12:11:41:815;2.1679497;-2.3187842;
1;12:11:41:825;-1.2797008;-1.4185646;
1;12:11:41:836;-1.1599907;-2.2649148;
1;12:11:41:847;-4.201824;-1.7106571;
1;12:11:41:857;-1.9967642;4.1683054;
1;12:11:41:868;3.9456444;-2.4612393;
1;12:11:41:879;2.7341783;2.730587;
1;12:11:41:890;-7.892486;-1.2940661;
1;12:11:41:900;-2.1918917;0.4369418;
1;12:11:41:911;-5.201403;-0.32202014;
1;12:11:41:921;-0.48243165;0.46926352;
1;12:11:41:931;-6.1662664;-3.6140475;
1;12:11:41:941;10.742783;-3.2010477;
1;12:11:41:951;-5.3522377;-1.8746599;
1;12:11:41:962;5.3103395;5.2840033;
1;12:11:41:973;-9.343372;-1.7741034;
1;12:11:41:983;8.219295;2.669535;
1;12:11:41:994;2.8562827;-1.7274165;
1;12:11:42:004;2.6431987;-1.0761937;
1;12:11:42:014;-8.300697;-0.41180268;
1;12:11:42:025;1.3072342;0.06703765;
1;12:11:42:036;4.830302;-2.1404164;
1;12:11:42:046;16.676811;2.2301989;
1;12:11:42:056;3.807978;-4.546589;
1;12:11:42:067;-6.2129536;0.6799533;
1;12:11:42:077;1.4640543;3.1866825;
1;12:11:42:088;5.840655;1.1492168;
1;12:11:42:098;-5.321113;-0.29807812;
1;12:11:42:109;-1.4760253;0.3842694;
1;12:11:42:119;-0.8726865;0.6631939;
1;12:11:42:130;0.8774749;-2.6898856;
1;12:11:42:140;-5.446809;-0.2765303;
1;12:11:42:151;-0.20829555;-0.60094464;
1;12:11:42:162;1.5514427;-1.9800048;
1;12:11:42:173;3.3075895;1.6256629;
1;12:11:42:183;8.799889;2.5330653;
1;12:11:42:194;0.29328972;2.4612393;
1;12:11:42:204;-1.7884687;1.4664485;
1;12:11:42:215;-1.210269;-2.991555;
1;12:11:42:226;2.4863784;-0.6727707;
1;12:11:42:237;11.208455;1.1252748;
1;12:11:42:247;3.1160536;0.23942018;
1;12:11:42:257;-3.5625722;-0.0023942017;
1;12:11:42:268;6.2632318;3.9743748;
1;12:11:42:279;7.4567413;-0.51475334;
1;12:11:42:289;2.2278047;-0.79487497;
1;12:11:42:300;5.8083334;1.780089;
1;12:11:42:309;2.5929205;-4.0198646;
1;12:11:42:320;5.6982;2.007538;
1;12:11:42:331;8.098388;-2.0278888;
1;12:11:42:341;3.4859576;-2.8622682;
1;12:11:42:352;11.810597;-0.08499416;
1;12:11:42:363;9.697714;-8.032547;
1;12:11:42:373;13.559562;4.8135424;
1;12:11:42:383;1.0821792;-3.7181952;
1;12:11:42:394;7.8290396;-6.6367273;
1;12:11:42:404;-0.8678981;-5.249287;
1;12:11:42:415;8.767567;-2.6839;
1;12:11:42:425;10.820595;0.1340753;
1;12:11:42:436;8.379706;-0.94690675;
1;12:11:42:447;9.496601;1.6220716;
1;12:11:42:458;7.3310456;-4.6136265;
1;12:11:42:469;12.562376;-1.6280571;
1;12:11:42:480;14.289793;0.23822308;
1;12:11:42:490;9.018958;4.1371803;
1;12:11:42:500;7.0221934;-0.6356605;
1;12:11:42:511;6.9383965;-2.8083985;
1;12:11:42:522;17.00841;2.088941;
1;12:11:42:533;14.975732;0.90620536;
1;12:11:42:542;5.0278234;-6.3985043;
1;12:11:42:553;7.3992805;-6.9491706;
1;12:11:42:563;11.147403;10.497377;
1;12:11:42:573;6.0609217;-5.781997;
1;12:11:42:584;8.853758;2.517503;
1;12:11:42:594;13.091495;-0.35673606;
1;12:11:42:605;13.178884;3.5362358;
1;12:11:42:616;10.188525;-1.8531121;
1;12:11:42:626;8.414422;1.7836803;
1;12:11:42:636;-1.6831238;1.9776106;
1;12:11:42:647;10.801441;-4.8662148;
1;12:11:42:658;5.6156;-1.2808979;
1;12:11:42:669;9.038112;-3.6260185;
1;12:11:42:679;4.5441947;-6.885724;
1;12:11:42:689;14.435839;2.7856536;
1;12:11:42:700;4.179079;-2.408567;
1;12:11:42:710;15.136143;0.18914193;
1;12:11:42:721;21.48796;-0.82001406;
1;12:11:42:731;18.422186;0.32441434;
1;12:11:42:741;-1.2497733;-1.30484;
1;12:11:42:752;15.7586355;-0.077811554;
1;12:11:42:763;0.36631286;-4.7070007;
1;12:11:42:773;2.220622;2.3535004;
1;12:11:42:783;4.4113164;-3.4560301;
1;12:11:42:794;8.414422;-5.233725;
1;12:11:42:805;16.601395;-9.157822;
1;12:11:42:815;7.8158712;-9.901221;
1;12:11:42:826;12.85806;7.9152308;
1;12:11:42:837;4.2916064;-8.926781;
1;12:11:42:848;1.7513585;1.5490485;
1;12:11:42:858;7.2831616;-0.089782566;
1;12:11:42:869;7.314286;-3.3662477;
1;12:11:42:880;14.53879;1.7477672;
1;12:11:42:891;13.444639;2.280477;
1;12:11:42:901;3.4237084;-6.211756;
1;12:11:42:911;10.115502;6.030994;
1;12:11:42:922;-6.367379;-3.393781;
1;12:11:42:933;4.1695023;16.400282;
1;12:11:42:944;11.963826;-0.47644615;
1;12:11:42:955;26.956316;-0.03232172;
1;12:11:42:965;21.61605;-3.5805287;
1;12:11:42:976;24.18024;-5.2744265;
1;12:11:42:987;5.1343656;-1.2473791;
1;12:11:42:998;-5.7784057;-5.0745106;
1;12:11:43:008;1.8219875;-4.5238442;
1;12:11:43:018;13.194446;-7.3909006;
1;12:11:43:029;-2.1751323;-8.815451;
1;12:11:43:039;6.2129536;-3.7792473;
1;12:11:43:050;12.484565;-4.9164934;
1;12:11:43:059;-12.312182;-4.131195;
1;12:11:43:070;11.495759;7.904457;
1;12:11:43:080;9.54209;0.9624691;
1;12:11:43:091;9.107543;1.7513585;
1;12:11:43:101;10.409989;-0.80564886;
1;12:11:43:111;7.309498;5.2444987;
1;12:11:43:121;2.7018566;-0.9504981;
1;12:11:43:131;9.095572;4.9643774;
1;12:11:43:142;5.935226;1.9871874;
1;12:11:43:152;9.130288;1.7956513;
1;12:11:43:162;4.4759603;3.1651347;
1;12:11:43:172;0.48722005;4.5046906;
1;12:11:43:182;-4.782418;-0.9516952;
1;12:11:43:193;-3.430891;-2.1679497;
1;12:11:43:204;-0.39384618;-3.6056678;
1;12:11:43:214;-1.5933412;-2.4492683;
1;12:11:43:224;-1.6352397;5.955577;
1;12:11:43:235;-8.718486;-3.7493198;
1;12:11:43:246;9.118318;0.025139118;
1;12:11:43:257;1.7932571;-0.4285621;
1;12:11:43:268;-3.9312792;5.315128;
1;12:11:43:278;-7.5561004;-9.404425;
1;12:11:43:289;-1.1755531;-3.3650506;
1;12:11:43:300;4.1395745;-1.9991584;
1;12:11:43:310;-7.381324;1.5131354;
1;12:11:43:320;2.111686;7.0102224;
1;12:11:43:331;-2.1068976;1.3742718;
1;12:11:43:342;-9.916783;3.764882;
1;12:11:43:351;-1.4939818;-2.634819;
1;12:11:43:362;11.331757;-2.3762453;
1;12:11:43:372;3.2142158;-2.6683378;
1;12:11:43:383;-1.1528081;0.7433996;
1;12:11:43:393;4.404134;3.4201171;
1;12:11:43:404;-0.63206923;3.9827545;
1;12:11:43:415;1.2988545;2.4157495;
1;12:11:43:425;3.7457285;-1.1923125;
1;12:11:43:436;-4.345476;-6.0369797;
1;12:11:43:446;-2.0410569;-1.5969325;
1;12:11:43:456;-3.9228995;1.4568717;
1;12:11:43:467;1.8614918;2.9017725;
1;12:11:43:477;6.039374;2.6719291;
1;12:11:43:487;5.9926867;5.519832;
1;12:11:43:498;-1.804031;3.2489316;
1;12:11:43:508;-7.1909847;-4.9428296;
1;12:11:43:518;5.9064956;0.010773907;
1;12:11:43:528;-4.972757;-2.2529438;
1;12:11:43:538;2.791639;4.5046906;
1;12:11:43:549;-1.0307038;0.30406362;
1;12:11:43:559;-2.066196;3.9971197;
1;12:11:43:569;-0.81761986;-0.842759;
1;12:11:43:580;1.6711528;3.1052797;
1;12:11:43:590;3.371036;-3.490746;
1;12:11:43:601;4.981137;1.198298;
1;12:11:43:612;1.4269443;-0.46088383;
1;12:11:43:623;-10.277111;2.3834279;
1;12:11:43:633;5.9519854;-0.19871874;
1;12:11:43:643;7.5968018;1.757344;
1;12:11:43:654;-1.8291701;-0.7302315;
1;12:11:43:664;8.226477;1.4544775;
1;12:11:43:675;0.36391866;3.1902738;
1;12:11:43:686;11.087548;-0.6596026;
1;12:11:43:696;9.613917;1.377863;
1;12:11:43:706;-0.8619126;-0.31244332;
1;12:11:43:717;-0.14844051;0.85473;
1;12:11:43:727;0.5255273;2.9628246;
1;12:11:43:738;4.5022964;3.0909145;
1;12:11:43:749;7.9032598;0.49200845;
1;12:11:43:760;-1.0642227;-1.2306197;
1;12:11:43:770;-2.0470424;-1.578976;
1;12:11:43:780;-1.1240777;3.086126;
1;12:11:43:791;-3.8115692;2.1428106;
1;12:11:43:802;5.913678;0.062249243;
1;12:11:43:813;-4.0821137;3.4620156;
1;12:11:43:824;0.6607997;-3.5182793;
1;12:11:43:834;1.2761095;0.60932434;
1;12:11:43:845;-6.6415157;-3.2752678;
1;12:11:43:856;1.1336545;7.335834;
1;12:11:43:866;8.148665;-0.4321534;
1;12:11:43:876;-9.40203;4.6902413;
1;12:11:43:887;-3.8019924;-0.48961425;
1;12:11:43:897;3.394978;-2.0733786;
1;12:11:43:907;2.822764;-0.6488287;
1;12:11:43:918;-9.28232;-0.061052144;
1;12:11:43:928;0.2681506;4.009091;
1;12:11:43:939;-4.712986;1.9572599;
1;12:11:43:950;2.4349031;-1.3682863;
1;12:11:43:960;-2.336741;-3.6882677;
1;12:11:43:970;-3.2920272;2.219425;
1;12:11:43:981;3.764882;4.441244;
1;12:11:43:991;-4.3718123;0.1388637;
1;12:11:44:002;-3.6367924;-1.0043676;
1;12:11:44:013;3.6774938;-2.681506;
1;12:11:44:023;-2.754529;3.0202854;
1;12:11:44:033;-1.0115502;-2.255338;
1;12:11:44:044;-9.216479;-3.9372647;
1;12:11:44:055;4.6339774;-1.2330139;
1;12:11:44:065;8.374918;3.807978;
1;12:11:44:075;-1.6400281;0.5363012;
1;12:11:44:086;-5.9268465;-0.46926352;
1;12:11:44:096;-5.685032;-1.5011644;
1;12:11:44:107;-2.919729;1.5442601;
1;12:11:44:118;2.2062569;-1.4652514;
1;12:11:44:129;-5.852626;5.931635;
1;12:11:44:140;-10.070012;-3.7804444;
1;12:11:44:150;6.397307;5.2444987;
1;12:11:44:161;-3.4213142;-4.948815;
1;12:11:44:171;-1.8722657;-2.421735;
1;12:11:44:182;3.3566709;-1.376666;
1;12:11:44:192;-12.521675;-1.7872716;
1;12:11:44:202;-6.8809357;1.8171991;
1;12:11:44:213;11.556811;0.08140286;
1;12:11:44:224;-2.0494366;-0.25498247;
1;12:11:44:235;-3.3051953;1.5873557;
1;12:11:44:245;-0.6859388;0.21547815;
1;12:11:44:255;3.74094;-0.1436521;
1;12:11:44:266;-7.089231;-1.9608512;
1;12:11:44:275;1.163582;-0.39145198;
1;12:11:44:285;2.255338;-1.5502456;
1;12:11:44:295;-4.7979803;4.8099513;
1;12:11:44:305;-7.1706343;-5.8801594;
1;12:11:44:315;4.84347;0.79248077;
1;12:11:44:325;10.45907;-0.81283146;
1;12:11:44:335;-2.6276364;3.441665;
1;12:11:44:346;-6.1806316;0.7146692;
1;12:11:44:356;0.11851298;-0.39145198;
1;12:11:44:366;5.142745;-0.90740246;
1;12:11:44:377;-1.8016368;-1.1168951;
1;12:11:44:386;-3.2453403;-0.4141969;
1;12:11:44:397;-7.285556;-2.6360161;
1;12:11:44:406;5.7843914;3.7361517;
1;12:11:44:417;-0.8619126;3.5003228;
1;12:11:44:426;2.2996306;4.9308586;
1;12:11:44:436;1.067814;-0.32441434;
1;12:11:44:446;4.0533834;-2.2828712;
1;12:11:44:457;1.851915;-4.047398;
1;12:11:44:467;2.7018566;3.539827;
1;12:11:44:478;4.9416323;1.2473791;
1;12:11:44:489;-1.9369092;5.463568;
1;12:11:44:500;7.1383123;3.66672;
1;12:11:44:511;-0.89543146;1.1827357;
1;12:11:44:521;-1.9369092;-3.015497;
1;12:11:44:531;-4.605247;1.0366893;
1;12:11:44:541;-0.82001406;0.33758244;
1;12:11:44:552;5.7724204;5.523423;
1;12:11:44:561;9.2787285;0.50158525;
1;12:11:44:572;-3.2597055;1.3982137;
1;12:11:44:582;3.4440591;-2.4851813;
1;12:11:44:592;-4.485537;1.3982137;
1;12:11:44:602;4.201824;-1.198298;
1;12:11:44:613;4.5992613;-0.108936176;
1;12:11:44:623;0.20829555;1.9285295;
1;12:11:44:633;-3.9121256;4.465186;
1;12:11:44:643;0.7326257;1.5801731;
1;12:11:44:653;4.4125137;1.2856863;
1;12:11:44:664;3.549404;-1.2318168;
1;12:11:44:675;6.649895;-2.0817583;
1;12:11:44:685;-5.815516;3.3255463;
1;12:11:44:696;4.1718965;5.407305;
1;12:11:44:706;6.4846954;3.3147724;
1;12:11:44:716;-3.916914;-2.942474;
1;12:11:44:726;-8.665813;-3.2369606;
1;12:11:44:736;-5.659893;-5.069722;
1;12:11:44:747;-2.9137435;-0.7757214;
1;12:11:44:756;0.46567222;-1.2318168;
1;12:11:44:767;-6.1004257;0.40581718;
1;12:11:44:778;-6.673837;-4.701015;
1;12:11:44:789;-1.8770541;-2.0015526;
1;12:11:44:801;-5.511452;-1.2126632;
1;12:11:44:811;-10.9834;0.019153614;
1;12:11:44:821;-9.379285;1.1659763;
1;12:11:44:832;0.34955344;-7.40766;
1;12:11:44:843;-17.089811;-0.6835446;
1;12:11:44:854;0.8738836;-0.90620536;
1;12:11:44:864;-13.210008;-3.6020765;
1;12:11:44:875;-10.666168;3.0669725;
1;12:11:44:885;-15.55034;-7.4375877;
1;12:11:44:895;1.1073183;0.061052144;
1;12:11:44:905;-7.0221934;-1.721431;
1;12:11:44:915;-8.4347725;-3.4931402;
1;12:11:44:925;-11.305421;1.2282255;
1;12:11:44:936;-2.920926;-2.802413;
1;12:11:44:945;-13.016078;1.484405;
1;12:11:44:956;-4.7884035;-3.7612908;
1;12:11:44:966;-5.9388175;7.597999;
1;12:11:44:977;-13.571532;-7.6650367;
1;12:11:44:987;-5.097255;4.0521865;
1;12:11:44:997;-3.1483753;3.570952;
1;12:11:45:008;-8.24204;-1.8986019;
1;12:11:45:018;-14.638149;-4.035427;
1;12:11:45:028;-5.8023477;-0.46686932;
1;12:11:45:039;-7.2867527;5.747281;
1;12:11:45:050;0.08379706;-0.25498247;
1;12:11:45:060;-11.510124;-3.4249055;
1;12:11:45:071;-4.4364557;2.3247697;
1;12:11:45:082;-11.696873;-3.369839;
1;12:11:45:093;-9.91798;-1.1971009;
1;12:11:45:104;1.2545617;3.2357635;
1;12:11:45:115;-9.132683;-1.590947;
1;12:11:45:124;-2.8311436;-1.5394717;
1;12:11:45:135;-8.77834;0.51235914;
1;12:11:45:145;-14.259866;-4.569334;
1;12:11:45:156;-9.834184;0.24899697;
1;12:11:45:167;-4.167108;0.91458505;
1;12:11:45:178;-5.866991;-7.0964136;
1;12:11:45:187;-6.194997;0.8846575;
1;12:11:45:197;-2.0111294;-1.6579847;
1;12:11:45:208;-4.8123455;1.3383588;
1;12:11:45:217;-7.741651;-5.8813562;
1;12:11:45:227;-13.585897;-2.5198972;
1;12:11:45:237;-1.8854338;-2.3666685;
1;12:11:45:247;-12.376825;2.1894975;
1;12:11:45:258;-0.7541735;-1.0905589;
1;12:11:45:267;-4.2401314;0.6512229;
1;12:11:45:278;4.050989;4.957195;
1;12:11:45:289;-19.548656;-2.597709;
1;12:11:45:300;-1.7477672;0.8750807;
1;12:11:45:310;-11.532869;-0.0011971008;
1;12:11:45:320;-5.923255;-0.7457938;
1;12:11:45:331;-18.929756;-2.3774424;
1;12:11:45:340;-3.383007;0.92535895;
1;12:11:45:351;-2.4791958;0.866701;
1;12:11:45:361;-2.066196;0.93254155;
1;12:11:45:371;-4.8698063;1.9261353;
1;12:11:45:381;1.4580688;-3.928885;
1;12:11:45:391;1.0295067;-1.9189527;
1;12:11:45:401;-6.7803793;-0.59136784;
1;12:11:45:411;-5.4180784;0.2741361;
1;12:11:45:422;2.1152773;6.26802;
1;12:11:45:432;3.4392707;2.4720132;
1;12:11:45:442;4.724957;1.3000516;
1;12:11:45:452;-3.7098155;0.5722142;
1;12:11:45:462;2.6276364;-2.2828712;
1;12:11:45:472;-1.0989386;6.361394;
1;12:11:45:482;-4.459201;2.9005754;
1;12:11:45:492;5.1607018;0.17717093;
1;12:11:45:502;1.5658079;0.8295909;
1;12:11:45:512;1.9955671;-1.0618285;
1;12:11:45:523;-0.24899697;0.9876082;
1;12:11:45:533;-0.2645593;1.103727;
1;12:11:45:543;-2.885013;1.9488802;
1;12:11:45:554;-3.5901055;-2.930503;
1;12:11:45:564;-5.849035;-1.4065934;
1;12:11:45:575;-2.847903;0.5243302;
1;12:11:45:585;1.6304513;0.9528923;
1;12:11:45:595;-0.31483752;-0.6464345;
1;12:11:45:606;-2.0386627;-1.3383588;
1;12:11:45:616;-2.5258827;-3.6607344;
1;12:11:45:627;-0.089782566;3.3482912;
1;12:11:45:637;-5.0278234;1.9405005;
1;12:11:45:648;-11.639412;-1.3395559;
1;12:11:45:658;-11.5077305;-0.94331545;
1;12:11:45:668;-5.463568;2.3259668;
1;12:11:45:680;-6.8318543;1.5179238;
1;12:11:45:689;-2.3008277;1.8830396;
1;12:11:45:700;-8.431181;0.6380547;
1;12:11:45:710;-0.19153613;-0.29448682;
1;12:11:45:720;-1.0307038;-2.469619;
1;12:11:45:731;-3.5541923;1.2401965;
1;12:11:45:741;-5.1822495;1.2258313;
1;12:11:45:751;1.174356;-2.2984335;
1;12:11:45:762;2.5629928;-0.7146692;
1;12:11:45:771;-3.2489316;-1.0019734;
1;12:11:45:781;-3.1232362;2.0123265;
1;12:11:45:791;1.5777789;4.781221;
1;12:11:45:802;-1.2150574;0.46447513;
1;12:11:45:813;-6.221333;-1.3634979;
1;12:11:45:824;5.080496;-0.9720459;
1;12:11:45:834;-0.35075054;-2.9724014;
1;12:11:45:845;4.4436383;9.805453;
1;12:11:45:855;-3.5649664;3.8666358;
1;12:11:45:866;-3.6487634;1.3299791;
1;12:11:45:876;12.01171;1.8148049;
1;12:11:45:886;7.505822;-2.9352913;
1;12:11:45:897;-8.22528;-4.3394904;
1;12:11:45:907;0.011971008;7.85777;
1;12:11:45:917;2.669535;-2.7341783;
1;12:11:45:928;-1.9680338;7.3047094;
1;12:11:45:939;-1.186327;-2.4959552;
1;12:11:45:950;4.0318356;0.8750807;
1;12:11:45:960;-1.4449008;0.6739678;
1;12:11:45:970;-0.5542577;6.435614;
1;12:11:45:981;0.5686229;-2.220622;
1;12:11:45:991;8.553286;5.947197;
1;12:11:46:002;-3.2872388;0.06344634;
1;12:11:46:012;5.777209;4.9643774;
1;12:11:46:021;-0.110133275;3.1268275;
1;12:11:46:032;-7.85777;-3.7576995;
1;12:11:46:043;3.4751837;0.45130703;
1;12:11:46:053;-1.9991584;-0.1400608;
1;12:11:46:063;3.9348705;-2.2613235;
1;12:11:46:074;5.577293;-0.44771573;
1;12:11:46:084;0.061052144;4.0737343;
1;12:11:46:095;3.3913867;0.700304;
1;12:11:46:105;-1.2785037;2.4301147;
1;12:11:46:115;4.0294414;0.16400282;
1;12:11:46:125;5.707777;-7.2340803;
1;12:11:46:136;6.1040173;1.364695;
1;12:11:46:147;4.8937483;0.8295909;
1;12:11:46:156;3.2800562;-0.59256494;
1;12:11:46:166;0.40222588;1.34195;
1;12:11:46:177;0.49200845;-0.62368953;
1;12:11:46:186;8.845378;0.7469909;
1;12:11:46:197;-0.034715924;-3.2345665;
1;12:11:46:207;1.6879122;3.335123;
1;12:11:46:217;2.859874;1.7956513;
1;12:11:46:228;6.353014;2.9939492;
1;12:11:46:238;3.2489316;-2.3930047;
1;12:11:46:249;-0.6931214;-1.6280571;
1;12:11:46:258;3.1196449;-1.3036429;
1;12:11:46:269;6.4906807;4.759673;
1;12:11:46:280;3.393781;3.6942532;
1;12:11:46:290;-1.3694834;2.1739352;
1;12:11:46:300;3.527856;1.541866;
1;12:11:46:310;-0.9576807;-3.1004913;
1;12:11:46:320;7.8745294;2.670732;
1;12:11:46:331;-2.5031378;-1.555034;
1;12:11:46:341;-3.2812533;1.3910311;
1;12:11:46:352;3.9240966;0.9648633;
1;12:11:46:363;-1.8148049;0.65242;
1;12:11:46:373;6.277597;-2.693477;
1;12:11:46:384;7.181408;3.13401;
1;12:11:46:394;-1.1216835;4.286818;
1;12:11:46:404;-7.644686;-3.5577838;
1;12:11:46:414;-1.4317327;2.1571758;
1;12:11:46:424;1.1228806;-0.7230489;
1;12:11:46:435;3.2992098;0.9600749;
1;12:11:46:446;5.4982843;3.4153287;
1;12:11:46:457;-5.746084;-1.30484;
1;12:11:46:467;14.816517;4.262876;
1;12:11:46:476;-3.1878796;-6.0166287;
1;12:11:46:487;0.65242;2.0685902;
1;12:11:46:497;0.9888053;-0.38307226;
1;12:11:46:507;8.220491;-3.0789435;
1;12:11:46:518;0.09816227;-3.4081461;
1;12:11:46:529;2.8502972;-0.80086046;
1;12:11:46:540;7.1981673;6.7612257;
1;12:11:46:550;19.934124;-1.5957354;
1;12:11:46:560;9.112331;3.3901896;
1;12:11:46:571;7.4471645;1.6651673;
1;12:11:46:581;6.133945;-2.088941;
1;12:11:46:592;3.0897174;3.2010477;
1;12:11:46:602;10.396821;0.14604631;
1;12:11:46:611;5.5701103;-1.9177556;
1;12:11:46:622;9.460688;2.3247697;
1;12:11:46:633;7.023391;-2.1188686;
1;12:11:46:642;6.597223;1.1025299;
1;12:11:46:653;9.692925;-3.752911;
1;12:11:46:663;4.8135424;4.6004586;
1;12:11:46:674;1.4041992;4.200627;
1;12:11:46:684;1.7070658;-1.0067618;
1;12:11:46:694;0.18674773;3.5458126;
1;12:11:46:705;3.954024;-1.412579;
1;12:11:46:714;-0.545878;0.29448682;
1;12:11:46:724;-2.7928362;-4.5382094;
1;12:11:46:735;-1.532289;-4.453215;
1;12:11:46:745;4.274847;-0.51235914;
1;12:11:46:756;-1.2976574;2.5785553;
1;12:11:46:766;0.21188685;3.5218706;
1;12:11:46:777;0.3866636;-1.079785;
1;12:11:46:788;3.3602622;-1.5047557;
1;12:11:46:797;0.094570965;0.23104046;
1;12:11:46:808;-3.53863;-0.6619968;
1;12:11:46:817;-2.730587;1.5275006;
1;12:11:46:828;4.8542438;1.9548657;
1;12:11:46:839;0.32561144;-1.1312603;
1;12:11:46:850;5.019444;0.08020575;
1;12:11:46:859;-0.50397944;-5.064934;
1;12:11:46:869;-0.22864626;5.0421886;
1;12:11:46:879;-4.308366;1.5263035;
1;12:11:46:890;-1.5346833;0.59017074;
1;12:11:46:901;0.7386112;0.17477672;
1;12:11:46:911;-1.1791444;-1.9656396;
1;12:11:46:922;1.6927006;4.297592;
1;12:11:46:933;-0.36631286;-2.8694508;
1;12:11:46:943;2.8814218;-1.70946;
1;12:11:46:953;-0.5674258;-2.2038627;
1;12:11:46:964;0.11372458;2.7461493;
1;12:11:46:975;-0.6655881;-6.1387334;
1;12:11:46:986;0.9552865;3.1603463;
1;12:11:46:997;-1.5227122;3.6403837;
1;12:11:47:008;-3.7565024;2.645593;
1;12:11:47:018;7.04015;1.7741034;
1;12:11:47:028;9.728839;1.7010803;
1;12:11:47:038;-13.845669;-9.194932;
1;12:11:47:048;-11.331757;1.7489643;
1;12:11:47:059;-3.2704794;-4.320337;
1;12:11:47:069;18.236635;8.186973;
1;12:11:47:079;-3.9971197;0.664391;
1;12:11:47:089;-1.7226281;0.6344634;
1;12:11:47:099;1.0833763;3.9875429;
1;12:11:47:109;-9.352949;-4.045004;
1;12:11:47:119;-4.9524064;-4.343082;
1;12:11:47:129;0.8834604;2.2529438;
1;12:11:47:139;0.8834604;2.2529438;
1;12:11:47:149;-5.5976434;2.9496565;
1;12:11:47:159;-5.5976434;2.9496565;
1;12:11:47:169;-7.6961613;-1.1552023;
1;12:11:47:179;-1.8315643;5.035006;
1;12:11:47:189;-1.541866;0.8475474;
1;12:11:47:200;-5.5377884;0.33518824;
1;12:11:47:210;-4.4125137;-0.6919243;
1;12:11:47:221;-6.9599442;-3.750517;
1;12:11:47:232;-13.9833355;-6.649895;
1;12:11:47:242;-5.6551046;-0.81881696;
1;12:11:47:253;-14.662091;-10.693702;
1;12:11:47:263;-10.389638;-1.6460136;
1;12:11:47:279;-7.8829093;-3.5577838;
1;12:11:47:289;-5.535394;-0.010773907;
1;12:11:47:299;-9.269152;1.7669208;
1;12:11:47:309;-6.83784;-2.6803088;
1;12:11:47:319;-20.077776;-2.944868;
1;12:11:47:330;-0.4369418;-1.2952632;
1;12:11:47:340;-0.4369418;-1.2952632;
1;12:11:47:350;2.3451207;6.5984197;
1;12:11:47:360;-13.992912;1.3599066;
1;12:11:47:370;-14.930242;-3.2632968;
1;12:11:47:381;-5.777209;2.3211784;
1;12:11:47:391;-11.372458;-0.52073884;
1;12:11:47:402;-5.791574;1.5765818;
1;12:11:47:412;-15.184027;0.32321724;
1;12:11:47:423;-3.8833952;-1.5059528;
1;12:11:47:433;-9.379285;6.6750345;
1;12:11:47:443;-18.54788;-3.1974564;
1;12:11:47:454;-0.33039984;-4.498705;
1;12:11:47:464;-7.0329676;5.671864;
1;12:11:47:474;-5.6658783;-5.0242324;
1;12:11:47:485;-15.5838585;-2.2756886;
1;12:11:47:494;-8.423999;4.1156325;
1;12:11:47:504;-12.129025;-5.41329;
1;12:11:47:514;-1.0534488;-9.090784;
1;12:11:47:524;-7.1526775;1.6124948;
1;12:11:47:535;1.7405846;-1.8974048;
1;12:11:47:545;-5.9747305;-3.4967315;
1;12:11:47:554;-9.242816;8.963891;
1;12:11:47:565;-11.022904;-6.7983356;
1;12:11:47:575;-7.675811;-1.5945383;
1;12:11:47:585;-8.123527;3.2824504;
1;12:11:47:595;1.1504139;0.8655039;
1;12:11:47:605;-10.447099;-4.662708;
1;12:11:47:615;-4.047398;2.919729;
1;12:11:47:625;-4.2580876;4.5142674;
1;12:11:47:636;-3.0478187;-7.1646485;
1;12:11:47:645;-7.156269;1.1384429;
1;12:11:47:656;-9.779117;1.2246342;
1;12:11:47:666;-5.171476;-7.7584105;
1;12:11:47:677;6.5110316;2.0614076;
1;12:11:47:687;-7.7428484;-0.58657944;
1;12:11:47:697;-19.879057;-11.036073;
1;12:11:47:708;-13.77504;3.9588125;
1;12:11:47:717;-6.716933;-2.208651;
1;12:11:47:728;-6.113594;-6.493075;
1;12:11:47:738;-3.9492357;4.0857053;
1;12:11:47:748;-8.735245;-1.5131354;
1;12:11:47:758;-3.276465;-5.7137623;
1;12:11:47:769;-16.591818;5.7987566;
1;12:11:47:779;-15.526398;-9.045294;
1;12:11:47:789;1.4628572;5.78918;
1;12:11:47:799;-6.279991;5.2528787;
1;12:11:47:809;-17.034744;-7.7799582;
1;12:11:47:820;-3.6104562;4.5681367;
1;12:11:47:830;-1.7034745;0.51235914;
1;12:11:47:840;-4.784812;3.1411927;
1;12:11:47:850;-14.8033495;-1.9081788;
1;12:11:47:861;-10.409989;-1.9357121;
1;12:11:47:871;-0.25498247;2.552219;
1;12:11:47:881;-8.285135;0.02873042;
1;12:11:47:891;-10.316615;-2.5151088;
1;12:11:47:901;-7.699753;-1.6843209;
1;12:11:47:911;-8.577228;-2.3319526;
1;12:11:47:921;-3.916914;4.8985367;
1;12:11:47:931;-5.2780175;-7.0700774;
1;12:11:47:941;-5.825093;-3.9707835;
1;12:11:47:951;-15.665261;-1.9081788;
1;12:11:47:961;-6.3913217;0.17238252;
1;12:11:47:971;-14.84405;2.2984335;
1;12:11:47:981;-4.7644615;-3.70383;
1;12:11:47:991;-11.046846;0.21667525;
1;12:11:48:001;-6.161478;0.6799533;
1;12:11:48:012;-0.23104046;1.0067618;
1;12:11:48:022;-8.297106;-2.2984335;
1;12:11:48:032;-11.704055;0.6751649;
1;12:11:48:042;-7.2987237;-0.7589619;
1;12:11:48:052;-6.05733;-0.7302315;
1;12:11:48:063;-10.508151;-3.2345665;
1;12:11:48:073;-8.647857;-2.72939;
1;12:11:48:083;-14.165295;-6.235698;
1;12:11:48:093;1.8447324;-1.1504139;
1;12:11:48:103;-13.585897;-2.304419;
1;12:11:48:113;-6.5385647;-3.9935284;
1;12:11:48:123;-4.5525746;2.007538;
1;12:11:48:133;-8.007407;-0.6751649;
1;12:11:48:144;-7.5285673;-0.36631286;
1;12:11:48:154;-5.3498435;-1.3814543;
1;12:11:48:164;-7.807492;0.45370123;
1;12:11:48:174;-1.8136078;3.2908301;
1;12:11:48:185;-8.659827;5.4623713;
1;12:11:48:195;-5.6000376;0.18794483;
1;12:11:48:205;-1.5263035;3.4021606;
1;12:11:48:215;-0.8858546;4.8638206;
1;12:11:48:226;-3.787627;1.174356;
1;12:11:48:236;-2.980781;0.5650316;
1;12:11:48:246;0.9684546;2.4372973;
1;12:11:48:256;2.8802247;1.5634137;
1;12:11:48:267;-0.20829555;-0.60333884;
1;12:11:48:277;-1.8543092;1.1192893;
1;12:11:48:287;-3.4763808;-0.2741361;
1;12:11:48:297;-5.7257333;3.9600096;
1;12:11:48:307;-4.5884876;-0.93014735;
1;12:11:48:317;-1.0259154;-7.880515;
1;12:11:48:328;2.566584;-5.8466406;
1;12:11:48:337;-3.7948096;-4.605247;
1;12:11:48:347;-3.0945058;0.8774749;
1;12:11:48:357;-8.261193;0.79607207;
1;12:11:48:367;-12.409147;-5.163096;
1;12:11:48:377;-1.1252748;0.89064306;
1;12:11:48:387;-8.452729;4.0294414;
1;12:11:48:397;2.1990743;-2.2589293;
1;12:11:48:408;-12.295423;6.3542113;
1;12:11:48:418;-0.736217;-1.6484078;
1;12:11:48:428;-7.357382;6.129156;
1;12:11:48:438;-15.564705;-1.1312603;
1;12:11:48:448;0.18914193;3.108871;
1;12:11:48:459;-8.048109;4.6351743;
1;12:11:48:469;-3.3889925;1.5227122;
1;12:11:48:479;-7.3753386;-0.12330139;
1;12:11:48:489;-4.5872903;4.224569;
1;12:11:48:500;-5.8586116;0.4321534;
1;12:11:48:510;-6.991069;0.9540894;
1;12:11:48:520;-11.310209;-0.03232172;
1;12:11:48:530;-5.768829;0.60932434;
1;12:11:48:540;-0.5351041;-1.5490485;
1;12:11:48:550;-5.1140146;-1.8303672;
1;12:11:48:560;-0.91578215;-6.8905125;
1;12:11:48:570;-6.7001734;-6.0621185;
1;12:11:48:580;7.639898;-5.407305;
1;12:11:48:590;-2.634819;2.054225;
1;12:11:48:601;-10.406398;-4.0916905;
1;12:11:48:611;-1.8531121;5.4085016;
1;12:11:48:621;-3.6846764;2.208651;
1;12:11:48:631;1.9835961;5.4300494;
1;12:11:48:642;6.835446;-1.4664485;
1;12:11:48:652;7.2867527;0.760159;
1;12:11:48:662;-10.371682;-1.1647792;
1;12:11:48:672;-5.8813562;-0.7733272;
1;12:11:48:683;3.7361517;-4.9883194;
1;12:11:48:693;1.1695676;-5.7065797;
1;12:11:48:703;6.1626754;4.0497923;
1;12:11:48:713;-2.0733786;1.8986019;
1;12:11:48:724;-7.501034;4.4675803;
1;12:11:48:734;-4.3287168;0.9816227;
1;12:11:48:744;17.477673;2.5198972;
1;12:11:48:754;7.7667904;-1.4257472;
1;12:11:48:765;3.551798;1.9201498;
1;12:11:48:774;11.124659;4.9536033;
1;12:11:48:784;5.104438;3.8510735;
1;12:11:48:794;4.3754034;-0.34955344;
1;12:11:48:804;6.363788;0.35913026;
1;12:11:48:815;-3.70383;-1.5227122;
1;12:11:48:825;-0.5243302;1.2413936;
1;12:11:48:835;13.946225;-0.91697925;
1;12:11:48:846;9.052477;-1.7860745;
1;12:11:48:855;16.879122;-1.2593501;
1;12:11:48:865;12.688072;-2.9951463;
1;12:11:48:875;-8.810662;-0.8571242;
1;12:11:48:886;-1.6496049;-1.0714053;
1;12:11:48:896;-1.1504139;-2.1308396;
1;12:11:48:906;0.35434186;-0.06344634;
1;12:11:48:916;3.3614593;0.36511576;
1;12:11:48:927;2.1619642;-0.088585466;
1;12:11:48:937;11.789049;2.7665;
1;12:11:48:948;0.45489833;-2.4001873;
1;12:11:48:959;1.9668367;6.1064115;
1;12:11:48:968;11.528081;-1.7753005;
1;12:11:48:978;8.016984;0.260968;
1;12:11:48:988;0.5422867;-0.8403648;
1;12:11:48:999;0.06943185;2.954445;
1;12:11:49:009;-2.6013002;-6.801927;
1;12:11:49:019;-5.8466406;-0.15801731;
1;12:11:49:029;6.4248405;-0.79846627;
1;12:11:49:039;1.2605472;5.6946087;
1;12:11:49:049;1.9835961;-2.7748797;
1;12:11:49:059;-3.6655228;7.0664864;
1;12:11:49:069;-4.661511;2.6264393;
1;12:11:49:079;0.700304;-3.2237926;
1;12:11:49:090;-0.51475334;-5.1235914;
1;12:11:49:099;-0.9504981;-0.29209262;
1;12:11:49:109;-2.066196;1.9800048;
1;12:11:49:119;-7.762002;0.025139118;
1;12:11:49:129;5.2085857;2.6731262;
1;12:11:49:139;4.6686935;-2.219425;
1;12:11:49:149;-2.8562827;-0.58538234;
1;12:11:49:159;-5.2959743;-1.2330139;
1;12:11:49:169;1.2066777;-4.868609;
1;12:11:49:179;1.2868834;8.009802;
1;12:11:49:190;9.616311;-3.8534677;
1;12:11:49:200;-5.8837504;1.1312603;
1;12:11:49:210;-2.5929205;2.553416;
1;12:11:49:220;1.0079589;-1.4760253;
1;12:11:49:231;1.9117701;3.465607;
1;12:11:49:241;-1.9428947;-5.4887075;
1;12:11:49:251;8.12233;3.1735144;
1;12:11:49:261;0.8511387;-3.0358477;
1;12:11:49:271;-4.3885717;1.7812861;
1;12:11:49:281;-2.255338;1.5825673;
1;12:11:49:291;-3.4129345;3.4320881;
1;12:11:49:301;5.459977;0.11851298;
1;12:11:49:311;5.365406;-0.5530606;
1;12:11:49:322;5.056554;-4.76087;
1;12:11:49:331;-7.192182;0.7146692;
1;12:11:49:341;1.661576;6.3661823;
1;12:11:49:351;0.23702596;-7.3549876;
1;12:11:49:361;6.0728927;5.401319;
1;12:11:49:371;7.890092;-0.24301147;
1;12:11:49:381;5.8909335;-3.763685;
1;12:11:49:392;-4.911705;-3.6882677;
1;12:11:49:402;-1.0307038;-0.093373865;
1;12:11:49:412;0.8343793;-3.9576154;
1;12:11:49:422;-2.7629087;-0.7433996;
1;12:11:49:432;3.894169;3.503914;
1;12:11:49:442;5.1559134;-1.009156;
1;12:11:49:452;-2.6120741;-1.9512744;
1;12:11:49:462;11.684901;1.0618285;
1;12:11:49:472;0.8391677;7.9595237;
1;12:11:49:482;3.4560301;-2.2900538;
1;12:11:49:493;1.4089876;2.9137435;
1;12:11:49:503;-0.20709845;-3.918111;
1;12:11:49:513;2.5187001;-8.415619;
1;12:11:49:523;11.993753;2.3451207;
1;12:11:49:533;1.2473791;-2.944868;
1;12:11:49:543;0.90141696;4.5406036;
1;12:11:49:554;0.878672;0.37469256;
1;12:11:49:564;-5.4384294;-0.62009823;
1;12:11:49:574;0.7266402;7.007828;
1;12:11:49:584;8.813056;-0.21787235;
1;12:11:49:594;7.5465236;4.373009;
1;12:11:49:604;1.2617443;-0.41299978;
1;12:11:49:614;1.9812019;-1.496376;
1;12:11:49:624;-0.11971009;-0.79966336;
1;12:11:49:634;-4.1036615;-1.863886;
1;12:11:49:644;3.9085343;0.21667525;
1;12:11:49:655;11.571177;3.763685;
1;12:11:49:665;6.4308257;-1.6053122;
1;12:11:49:675;2.0171149;-0.760159;
1;12:11:49:686;11.58674;1.2808979;
1;12:11:49:696;-2.2409728;-0.08499416;
1;12:11:49:706;11.860875;1.4820108;
1;12:11:49:717;11.3964;-1.5179238;
1;12:11:49:727;4.259285;-2.8670566;
1;12:11:49:738;5.0374002;3.6224272;
1;12:11:49:748;1.8950106;-2.4037786;
1;12:11:49:758;2.7401638;-0.4405331;
1;12:11:49:768;-8.269572;-7.9631147;
1;12:11:49:778;2.3068132;-0.8355764;
1;12:11:49:789;4.189853;3.788824;
1;12:11:49:799;6.209362;1.9764135;
1;12:11:49:809;1.2378023;0.93852705;
1;12:11:49:819;7.1754227;3.74094;
1;12:11:49:829;6.05733;-1.3431472;
1;12:11:49:839;0.8499416;-0.016759412;
1;12:11:49:849;-2.0913353;-4.4460325;
1;12:11:49:859;3.5877113;-1.3922282;
1;12:11:49:870;-4.525041;-2.9161377;
1;12:11:49:880;3.0621839;0.31244332;
1;12:11:49:890;-6.5098343;1.8387469;
1;12:11:49:900;8.750807;7.9116397;
1;12:11:49:910;-2.9388826;-7.0664864;
1;12:11:49:921;5.064934;3.4871547;
1;12:11:49:931;-1.2174516;-0.4369418;
1;12:11:49:941;-0.1352724;-3.3650506;
1;12:11:49:951;-8.069656;-0.093373865;
1;12:11:49:961;9.451111;10.57878;
1;12:11:49:971;0.50757074;-3.9719806;
1;12:11:49:981;-3.144784;0.40222588;
1;12:11:49:991;5.0014873;1.0354922;
1;12:11:50:002;-5.353435;-0.5770026;
1;12:11:50:012;6.0968347;0.35434186;
1;12:11:50:023;-2.7724855;4.3299136;
1;12:11:50:033;1.3455414;1.2629414;
1;12:11:50:043;-0.35913026;-0.09935937;
1;12:11:50:053;1.2629414;-2.3295584;
1;12:11:50:063;-0.48961425;0.557849;
1;12:11:50:074;7.6722193;4.047398;
1;12:11:50:084;7.4387846;-1.8088194;
1;12:11:50:094;-1.9297266;-0.19033903;
1;12:11:50:104;-3.0454245;-2.3558946;
1;12:11:50:114;-4.232949;1.3922282;
1;12:11:50:125;-0.89902276;0.78529817;
1;12:11:50:135;6.933608;-1.7429788;
1;12:11:50:145;0.4165911;0.11851298;
1;12:11:50:155;-9.67856;2.0254946;
1;12:11:50:165;-2.919729;2.0649989;
1;12:11:50:175;0.5770026;1.9428947;
1;12:11:50:185;-6.208165;-0.5386954;
1;12:11:50:195;6.766014;-1.9261353;
1;12:11:50:206;-5.535394;-0.107739076;
1;12:11:50:216;-5.270835;-3.4165258;
1;12:11:50:226;-5.93762;-0.142455;
1;12:11:50:236;-4.8159366;1.0965444;
1;12:11:50:246;-4.24492;-3.4105403;
1;12:11:50:257;-7.243657;1.5478514;
1;12:11:50:266;-4.394557;-1.1133038;
1;12:11:50:276;-0.89662856;-0.18914193;
1;12:11:50:287;-4.8123455;-4.5657425;
1;12:11:50:297;-9.722853;0.7266402;
1;12:11:50:307;-6.3350577;-0.8367735;
1;12:11:50:317;-16.041151;-5.685032;
1;12:11:50:327;-11.419145;1.6304513;
1;12:11:50:338;-18.088194;-5.2624555;
1;12:11:50:348;-4.0426097;-3.5769374;
1;12:11:50:359;-9.877279;2.171541;
1;12:11:50:369;-17.337612;-4.155137;
1;12:11:50:379;-6.719327;-2.6276364;
1;12:11:50:390;-19.02313;-1.3455414;
1;12:11:50:400;-9.674969;-5.0278234;
1;12:11:50:411;-7.7584105;-3.3135753;
1;12:11:50:420;-11.637017;2.2601264;
1;12:11:50:430;-4.357447;1.0582372;
1;12:11:50:440;-16.133327;-4.5406036;
1;12:11:50:450;-2.4432828;1.447295;
1;12:11:50:460;-3.7780502;4.911705;
1;12:11:50:470;-12.642582;-0.15682021;
1;12:11:50:480;-6.289568;-1.0869676;
1;12:11:50:490;-14.396335;-2.2170308;
1;12:11:50:501;2.2349873;6.3542113;
1;12:11:50:510;-8.531737;-9.812635;
1;12:11:50:521;-11.596316;-5.21098;
1;12:11:50:531;-1.733402;6.341043;
1;12:11:50:541;-0.36391866;-8.513782;
1;12:11:50:552;-3.678691;-2.1763294;
1;12:11:50:562;-1.721431;1.8411411;
1;12:11:50:572;7.854179;4.6603136;
1;12:11:50:582;5.9543796;-9.623494;
1;12:11:50:592;-15.245079;5.303157;
1;12:11:50:602;-12.089521;-5.0864816;
1;12:11:50:613;-3.9719806;2.1392193;
1;12:11:50:624;-14.01446;2.3570917;
1;12:11:50:634;-5.793968;-2.2972364;
1;12:11:50:644;3.9456444;-2.1631613;
1;12:11:50:655;-0.51116204;-6.2644286;
1;12:11:50:666;-23.0406;-3.0657754;
1;12:11:50:676;-4.751293;2.7964275;
1;12:11:50:686;-4.413711;-8.647857;
1;12:11:50:696;-10.704475;8.623915;
1;12:11:50:706;-8.052897;-2.2637177;
1;12:11:50:717;-8.158242;-1.2844892;
1;12:11:50:726;-16.498444;2.814384;
1;12:11:50:737;-5.046977;-0.22146365;
1;12:11:50:747;-9.382876;-0.59256494;
1;12:11:50:757;-5.3474493;0.04309563;
1;12:11:50:767;-18.283321;-1.8555063;
1;12:11:50:777;-7.94037;-3.5817258;
1;12:11:50:787;-3.8163576;2.8072014;
1;12:11:50:798;-14.153323;2.9364884;
1;12:11:50:809;5.3725886;-1.0462662;
1;12:11:50:819;-12.221203;6.578069;
1;12:11:50:832;-2.3546975;-2.2385786;
1;12:11:50:841;-10.170568;-3.551798;
1;12:11:50:851;-11.160571;-1.1061212;
1;12:11:50:861;-1.2294226;-5.3223104;
1;12:11:50:871;-1.3551182;-7.9391727;
1;12:11:50:881;-12.66413;3.8474822;
1;12:11:50:891;-6.489484;-8.615535;
1;12:11:50:902;-0.6584055;0.59974754;
1;12:11:50:911;-11.538856;6.6367273;
1;12:11:50:922;-2.6276364;-4.855441;
1;12:11:50:932;-6.694188;5.851429;
1;12:11:50:942;-8.036138;-0.47285482;
1;12:11:50:952;-2.930503;-2.5366566;
1;12:11:50:963;3.7313633;1.8734628;
1;12:11:50:974;-6.2740054;1.5107412;
1;12:11:50:985;3.2489316;2.1763294;
1;12:11:50:995;-10.280702;-1.851915;
1;12:11:51:006;-0.22864626;1.9560628;
1;12:11:51:017;1.7130513;-2.7114334;
1;12:11:51:028;-0.50517654;4.8853683;
1;12:11:51:038;-4.775235;-1.0630256;
1;12:11:51:049;-3.3794158;1.508347;
1;12:11:51:058;5.3857565;5.7161565;
1;12:11:51:068;4.59567;2.1583729;
1;12:11:51:079;-8.171411;-0.8439561;
1;12:11:51:090;5.2121773;-0.31124622;
1;12:11:51:100;0.19752164;1.8890251;
1;12:11:51:110;-1.9500773;1.3706805;
1;12:11:51:121;-3.6367924;-1.6112977;
1;12:11:51:131;-2.873042;-1.3060371;
1;12:11:51:142;-1.508347;3.4500446;
1;12:11:51:152;-2.1643584;-7.771579;
1;12:11:51:163;-5.363012;2.8107927;
1;12:11:51:174;-4.7201686;2.7880478;
1;12:11:51:183;-13.36204;-8.304289;
1;12:11:51:194;-0.90021986;4.6244006;
1;12:11:51:205;-8.5473;-6.5840545;
1;12:11:51:215;-5.1547165;0.7134721;
1;12:11:51:226;-5.159505;0.5530606;
1;12:11:51:236;-5.9543796;-0.79607207;
1;12:11:51:247;-10.891224;1.7741034;
1;12:11:51:257;-8.137892;-2.5019407;
1;12:11:51:267;-8.833407;0.59136784;
1;12:11:51:278;-7.419631;2.0745757;
1;12:11:51:289;2.7377696;-1.70946;
1;12:11:51:300;1.9381063;4.325125;
1;12:11:51:311;4.4556093;0.4357447;
1;12:11:51:322;-11.061212;0.48003745;
1;12:11:51:333;-11.218032;-6.0944405;
1;12:11:51:344;-4.0054994;3.309984;
1;12:11:51:355;-3.8067808;-2.56419;
1;12:11:51:365;-10.235212;-1.5370775;
1;12:11:51:376;-9.461885;-0.79008657;
1;12:11:51:386;-3.3446999;-1.910573;
1;12:11:51:397;-11.761516;-2.955642;
1;12:11:51:408;-5.494693;3.809175;
1;12:11:51:418;-4.048595;0.11611878;
1;12:11:51:429;-6.220136;-0.11133038;
1;12:11:51:440;6.25964;3.7373488;
1;12:11:51:451;-7.3849154;-2.6420016;
1;12:11:51:461;1.9608512;-3.442862;
1;12:11:51:471;-6.6774287;-1.0319009;
1;12:11:51:481;-4.5394063;7.290344;
1;12:11:51:492;-9.334992;-1.7884687;
1;12:11:51:503;5.4671597;-5.5497594;
1;12:11:51:514;6.992266;3.3159695;
1;12:11:51:525;1.0618285;1.2904748;
1;12:11:51:535;3.120842;1.2509704;
1;12:11:51:546;-1.982399;-1.0414777;
1;12:11:51:557;-1.5442601;6.053739;
1;12:11:51:567;-7.004237;1.6531962;
1;12:11:51:578;-8.51019;-2.3810337;
1;12:11:51:588;1.4879963;-3.8522706;
1;12:11:51:599;-1.6675615;0.4333505;
1;12:11:51:609;-2.2780828;3.7936125;
1;12:11:51:620;-4.5657425;1.3479356;
1;12:11:51:630;8.366538;2.6312277;
1;12:11:51:641;6.1686606;2.4588451;
1;12:11:51:651;2.6970682;-4.6603136;
1;12:11:51:661;-0.5614403;-1.0354922;
1;12:11:51:671;4.7070007;0.5374983;
1;12:11:51:681;-0.18195933;-3.417723;
1;12:11:51:691;6.751649;-1.448492;
1;12:11:51:702;12.224793;3.9612067;
1;12:11:51:713;6.8605847;-1.1192893;
1;12:11:51:724;1.6986861;-0.8762778;
1;12:11:51:734;2.2170308;-0.033518825;
1;12:11:51:745;12.787432;-0.079008654;
1;12:11:51:755;3.309984;-1.7824832;
1;12:11:51:766;1.292869;-3.8055837;
1;12:11:51:777;7.309498;5.6335564;
1;12:11:51:787;10.487801;-0.8403648;
1;12:11:51:798;4.8506527;-0.8810662;
1;12:11:51:808;1.6017209;4.425682;
1;12:11:51:819;5.9663506;-4.724957;
1;12:11:51:830;4.987122;4.771644;
1;12:11:51:840;1.5634137;-1.8064252;
1;12:11:51:851;12.557588;3.66672;
1;12:11:51:861;-2.4349031;2.3678656;
1;12:11:51:871;10.664971;-0.9864111;
1;12:11:51:881;-8.972271;-3.345897;
1;12:11:51:891;4.6160207;-1.043872;
1;12:11:51:901;-1.2653356;-4.238934;
1;12:11:51:912;1.4580688;0.49200845;
1;12:11:51:921;-7.5884223;3.7576995;
1;12:11:51:932;4.5022964;-0.973243;
1;12:11:51:943;-2.8443117;0.8343793;
1;12:11:51:952;0.108936176;1.8722657;
1;12:11:51:962;-8.774749;1.2617443;
1;12:11:51:973;2.1523874;3.762488;
1;12:11:51:982;4.2305546;-10.287885;
1;12:11:51:992;7.315483;-6.803124;
1;12:11:52:003;0.8571242;4.074931;
1;12:11:52:014;-6.172252;-6.5984197;
1;12:11:52:024;-5.0038815;24.218548;
1;12:11:52:036;-0.21547815;26.870125;
1;12:11:52:047;20.994755;-3.2249897;
1;12:11:52:058;15.613787;4.4963107;
1;12:11:52:068;-1.1216835;-6.8761473;
1;12:11:52:079;-2.6803088;-5.6156;
1;12:11:52:089;-10.210073;-0.4213795;
1;12:11:52:100;-22.8754;8.221688;
1;12:11:52:110;-7.9487495;-12.107478;
1;12:11:52:121;-1.292869;6.187814;
1;12:11:52:132;-13.579912;-5.9807158;
1;12:11:52:143;-2.3570917;-3.726575;
1;12:11:52:153;-6.3566055;-4.189853;
1;12:11:52:163;9.370906;2.9317;
1;12:11:52:174;15.816096;4.6399627;
1;12:11:52:184;0.56982;17.286137;
1;12:11:52:194;-8.462306;0.01316811;
1;12:11:52:205;-15.674838;4.1240125;
1;12:11:52:215;-8.920795;2.171541;
1;12:11:52:226;-5.118803;-1.8507179;
1;12:11:52:236;-5.9759274;1.3096284;
1;12:11:52:246;3.58412;5.149928;
1;12:11:52:257;6.779182;-4.0138793;
1;12:11:52:267;-0.35194764;-5.100847;
1;12:11:52:278;-3.752911;-3.2800562;
1;12:11:52:289;4.368221;-3.9827545;
1;12:11:52:299;6.884527;9.554062;
1;12:11:52:309;1.2401965;0.7649474;
1;12:11:52:319;5.0481744;-3.5422213;
1;12:11:52:329;-4.5298295;-3.4859576;
1;12:11:52:340;-6.469133;3.7493198;
1;12:11:52:349;0.16879122;-3.8379054;
1;12:11:52:360;1.0594343;7.8649526;
1;12:11:52:370;2.908955;0.89662856;
1;12:11:52:381;-0.34955344;4.4807487;
1;12:11:52:391;5.511452;-1.6591818;
1;12:11:52:401;-4.4328647;-1.6891093;
1;12:11:52:411;-0.50637364;2.4983494;
1;12:11:52:421;-0.81283146;-0.15562311;
1;12:11:52:431;6.1100025;3.6511576;
1;12:11:52:442;-5.9184666;-1.7824832;
1;12:11:52:453;-0.20231004;-0.44532153;
1;12:11:52:463;-5.566519;-0.8738836;
1;12:11:52:474;1.270124;1.8231846;
1;12:11:52:484;3.9959226;1.4856021;
1;12:11:52:496;3.7972038;-0.107739076;
1;12:11:52:507;7.2951326;-1.8590976;
1;12:11:52:517;-0.039504327;-1.8555063;
1;12:11:52:527;0.82480246;-5.5497594;
1;12:11:52:538;-5.0146556;2.597709;
1;12:11:52:548;-1.6460136;8.689755;
1;12:11:52:559;4.0785227;0.89303726;
1;12:11:52:570;11.066;8.924387;
1;12:11:52:580;7.5668745;-1.1336545;
1;12:11:52:591;3.4835634;-2.9652188;
1;12:11:52:602;-3.560178;-4.771644;
1;12:11:52:612;-4.0581717;2.1176715;
1;12:11:52:623;-4.4196963;2.7820623;
1;12:11:52:633;-3.7241807;0.05626374;
1;12:11:52:643;1.2605472;3.015497;
1;12:11:52:654;-3.0621839;2.0290859;
1;12:11:52:664;7.451953;-6.173449;
1;12:11:52:675;3.110068;1.0462662;
1;12:11:52:686;-6.769605;-3.2034419;
1;12:11:52:698;-5.080496;3.5936968;
1;12:11:52:708;2.1260512;-1.7070658;
1;12:11:52:718;0.91578215;1.5167267;
1;12:11:52:729;-4.631583;-0.5231331;
1;12:11:52:739;2.885013;0.40462008;
1;12:11:52:749;-4.1826706;2.03148;
1;12:11:52:760;-7.074866;-0.45729253;
1;12:11:52:770;-5.6443305;3.690662;
1;12:11:52:781;-0.40222588;-1.0115502;
1;12:11:52:792;-3.4632127;-4.6902413;
1;12:11:52:803;-2.9101522;-8.595184;
1;12:11:52:814;-1.733402;-2.80361;
1;12:11:52:825;8.731653;-1.0594343;
1;12:11:52:835;1.435324;-4.6842556;
1;12:11:52:845;-6.7839704;1.1719618;
1;12:11:52:856;-4.9907136;-3.1016884;
1;12:11:52:866;-18.092981;4.4759603;
1;12:11:52:877;-3.2142158;-3.052607;
1;12:11:52:887;7.442376;9.43076;
1;12:11:52:897;-0.12449849;-0.8882488;
1;12:11:52:907;-4.1982327;3.4847605;
1;12:11:52:917;7.8062944;1.5298948;
1;12:11:52:927;-9.825804;-0.25378537;
1;12:11:52:937;-3.7828386;-5.518635;
1;12:11:52:948;1.0534488;-3.6236243;
1;12:11:52:959;1.3371617;0.92416185;
1;12:11:52:970;6.338649;7.339425;
1;12:11:52:979;-4.3023806;6.18542;
1;12:11:52:990;2.067393;2.2457612;
1;12:11:53:000;6.244078;3.705027;
1;12:11:53:010;7.2664022;1.8447324;
1;12:11:53:020;2.1188686;-5.499481;
1;12:11:53:030;-8.197746;-6.555324;
1;12:11:53:041;-5.731719;-3.930082;
2;12:11:53:052;-2.1787236;3.5003228;
2;12:11:53:063;1.4999673;-2.4588451;
2;12:11:53:074;1.4999673;-2.4588451;
2;12:11:53:084;1.4999673;-2.4588451;
2;12:11:53:095;-5.683835;-3.180697;
2;12:11:53:105;-5.683835;-3.180697;
2;12:11:53:116;-2.2134395;6.133945;
2;12:11:53:126;-0.7661445;3.217807;
2;12:11:53:136;-0.7661445;3.217807;
2;12:11:53:146;-0.7661445;3.217807;
2;12:11:53:156;-0.7661445;3.217807;
2;12:11:53:167;-0.7661445;3.217807;
2;12:11:53:177;6.361394;5.5605335;
2;12:11:53:188;6.361394;5.5605335;
2;12:11:53:198;6.361394;5.5605335;
2;12:11:53:208;6.361394;5.5605335;
2;12:11:53:218;1.9285295;-1.4688427;
2;12:11:53:228;2.3918076;-1.6448165;
2;12:11:53:239;-2.5474305;-0.9720459;
2;12:11:53:248;-1.7441759;-5.746084;
2;12:11:53:259;-0.25139117;2.885013;
2;12:11:53:269;2.8981812;6.471527;
2;12:11:53:279;-2.1152773;-1.2210429;
2;12:11:53:289;2.5941176;7.2125325;
2;12:11:53:299;4.570531;-0.17597382;
2;12:11:53:311;-1.186327;-6.8438253;
2;12:11:53:322;-3.1435869;1.8471266;
2;12:11:53:332;-8.6299;-3.821146;
2;12:11:53:342;1.1324574;-0.30885202;
2;12:11:53:352;-4.5884876;1.4772224;
2;12:11:53:362;2.693477;5.6239796;
2;12:11:53:373;13.340492;-0.44651863;
2;12:11:53:383;5.981913;1.6986861;
2;12:11:53:394;-3.7732618;-0.06464344;
2;12:11:53:404;-2.9747956;-4.0545807;
2;12:11:53:415;-4.8243165;1.0390835;
2;12:11:53:425;1.4867992;2.7257986;
2;12:11:53:435;9.220071;2.2984335;
2;12:11:53:445;9.212888;3.0585926;
2;12:11:53:455;-3.441665;2.087744;
2;12:11:53:465;-2.2170308;0.7182605;
2;12:11:53:475;1.9321208;-7.0820484;
2;12:11:53:486;1.7908629;0.45130703;
2;12:11:53:497;2.1428106;0.7541735;
2;12:11:53:508;1.1731589;7.455544;
2;12:11:53:519;-0.7410054;-2.8491;
2;12:11:53:530;-0.18794483;2.0949266;
2;12:11:53:541;-1.8195933;-5.493496;
2;12:11:53:551;-1.863886;-0.81043726;
2;12:11:53:562;-7.441179;2.0231004;
2;12:11:53:571;-3.5422213;-0.23582886;
2;12:11:53:582;1.151611;-0.11611878;
2;12:11:53:593;6.254852;3.7349546;
2;12:11:53:603;-3.8726213;-3.1783028;
2;12:11:53:613;8.206126;-2.6240451;
2;12:11:53:623;0.35793316;-2.3690627;
2;12:11:53:634;-6.5122285;0.47644615;
2;12:11:53:644;2.6599581;2.3104045;
2;12:11:53:654;7.382521;2.4708161;
2;12:11:53:665;9.886856;2.529474;
2;12:11:53:675;-3.0107086;0.039504327;
2;12:11:53:685;-0.39384618;3.2716765;
2;12:11:53:697;-6.5625067;-2.336741;
2;12:11:53:707;-5.0158525;0.712275;
2;12:11:53:717;7.6243353;1.6747441;
2;12:11:53:727;8.42759;-5.7065797;
2;12:11:53:737;1.377863;-2.6874914;
2;12:11:53:748;-3.027468;-1.328782;
2;12:11:53:759;-3.4847605;1.1755531;
2;12:11:53:770;-1.7980455;7.4387846;
2;12:11:53:779;7.15986;-1.3491327;
2;12:11:53:789;5.473145;2.954445;
2;12:11:53:799;7.038953;-3.9683893;
2;12:11:53:809;-4.7022123;-0.5530606;
2;12:11:53:819;-6.730101;-2.147599;
2;12:11:53:829;-3.870227;-1.1719618;
2;12:11:53:840;-1.0582372;7.524976;
2;12:11:53:850;1.7046716;1.1755531;
2;12:11:53:860;-3.4117374;1.2521675;
2;12:11:53:870;-0.24420857;3.0753522;
2;12:11:53:881;-0.21188685;-0.79008657;
2;12:11:53:892;1.4257472;-2.184709;
2;12:11:53:903;-9.085996;-4.4280763;
2;12:11:53:913;-1.2449849;-5.0781016;
2;12:11:53:924;-3.2369606;1.198298;
2;12:11:53:935;-4.0916905;1.8818425;
2;12:11:53:946;6.7205243;1.0642227;
2;12:11:53:956;-10.107122;4.911705;
2;12:11:53:967;-1.8136078;-0.6332663;
2;12:11:53:977;0.074220255;4.8578353;
2;12:11:53:989;-1.6124948;-0.34476504;
2;12:11:53:999;1.0426749;-1.9728222;
2;12:11:54:009;-3.1316159;1.0510546;
2;12:11:54:019;7.2568254;0.736217;
2;12:11:54:029;-5.2277393;2.9628246;
2;12:11:54:039;2.3714569;4.344279;
2;12:11:54:050;-11.262324;-2.5929205;
2;12:11:54:061;7.6470804;-1.2294226;
2;12:11:54:070;1.5466543;-6.131551;
2;12:11:54:080;8.7125;-4.3035774;
2;12:11:54:091;-5.7879825;-1.352724;
2;12:11:54:102;-10.534488;-2.1320367;
2;12:11:54:112;0.18555063;3.0214825;
2;12:11:54:122;-0.89303726;2.469619;
2;12:11:54:133;-3.9432502;3.0023289;
2;12:11:54:143;9.4295635;-3.3506854;
2;12:11:54:154;0.94451255;-1.8662802;
2;12:11:54:164;-11.088745;3.1196449;
2;12:11:54:175;0.130484;4.5537715;
2;12:11:54:185;4.8027687;3.2345665;
2;12:11:54:195;0.62009823;-3.0813377;
2;12:11:54:205;3.4093432;2.7006595;
2;12:11:54:216;-0.78290397;-0.7086837;
2;12:11:54:226;0.79008657;1.3311762;
2;12:11:54:237;-7.2364745;-0.093373865;
2;12:11:54:247;1.389834;3.3063924;
2;12:11:54:257;0.022744916;-3.156755;
2;12:11:54:267;2.8048072;2.4768016;
2;12:11:54:277;-8.497022;-5.589264;
2;12:11:54:287;1.2485762;-1.5095441;
2;12:11:54:297;-1.555034;-2.1260512;
2;12:11:54:307;-8.626308;0.061052144;
2;12:11:54:317;-1.5945383;2.1643584;
2;12:11:54:328;-5.445612;-0.34596214;
2;12:11:54:338;-4.1862617;-2.6731262;
2;12:11:54:348;-1.8363527;-1.2509704;
2;12:11:54:358;-1.1300632;-0.11611878;
2;12:11:54:369;-7.1502833;-1.8890251;
2;12:11:54:379;-14.441825;3.417723;
2;12:11:54:389;-7.78355;-11.088745;
2;12:11:54:400;-11.353305;1.4305356;
2;12:11:54:410;-9.485827;-4.56694;
2;12:11:54:420;-1.4616601;-3.752911;
2;12:11:54:430;-13.020866;5.109226;
2;12:11:54:440;2.098518;-5.4444146;
2;12:11:54:450;-17.173609;-0.22385786;
2;12:11:54:460;2.5677812;-0.51355624;
2;12:11:54:471;-12.285846;-1.5275006;
2;12:11:54:481;-13.078327;-2.3307555;
2;12:11:54:492;-14.232332;-0.39743748;
2;12:11:54:501;0.47884035;0.3842694;
2;12:11:54:511;-7.848193;1.1599907;
2;12:11:54:521;-14.368801;-3.6092591;
2;12:11:54:531;-14.346057;-0.61890113;
2;12:11:54:541;-5.294777;4.3538556;
2;12:11:54:551;-8.48984;0.93852705;
2;12:11:54:561;-13.008895;-1.5729905;
2;12:11:54:572;-11.297041;-0.58897364;
2;12:11:54:582;2.7461493;0.22266077;
2;12:11:54:592;-18.668787;1.7070658;
2;12:11:54:602;-11.097125;-1.0450691;
2;12:11:54:612;2.6970682;0.7577648;
2;12:11:54:623;-9.035717;4.6818614;
2;12:11:54:633;-10.484209;-3.6715083;
2;12:11:54:643;-17.18917;-0.6967127;
2;12:11:54:653;-11.481394;0.7769185;
2;12:11:54:663;-4.71538;-1.7369933;
2;12:11:54:673;-15.161283;-1.1899183;
2;12:11:54:683;5.603629;1.8447324;
2;12:11:54:693;-7.965509;-2.9987376;
2;12:11:54:704;-3.3291376;-0.4177882;
2;12:11:54:713;-3.7565024;-5.6886234;
2;12:11:54:723;11.522096;2.7473464;
2;12:11:54:733;-13.26268;-6.752846;
2;12:11:54:743;-6.9479733;0.92176765;
2;12:11:54:754;-10.751163;-5.875371;
2;12:11:54:764;-8.791509;3.9552212;
2;12:11:54:774;3.9097314;-3.1184478;
2;12:11:54:784;-9.783905;-0.49679685;
2;12:11:54:794;-11.812991;1.6077064;
2;12:11:54:804;-14.58428;-5.675455;
2;12:11:54:814;-7.1466923;-3.465607;
2;12:11:54:824;-10.333375;-4.8506527;
2;12:11:54:834;-11.550826;-2.6635494;
2;12:11:54:844;-4.6339774;1.1456255;
2;12:11:54:854;-5.8215013;0.4369418;
2;12:11:54:864;-13.996503;-3.4715924;
2;12:11:54:874;-3.855862;2.5079262;
2;12:11:54:884;-7.777564;1.055843;
2;12:11:54:895;-8.050503;-1.1623849;
2;12:11:54:905;-7.350199;4.3035774;
2;12:11:54:915;-16.480488;-6.767211;
2;12:11:54:925;-9.130288;1.2653356;
2;12:11:54:935;-5.3043537;0.5422867;
2;12:11:54:945;-1.7908629;-4.4448357;
2;12:11:54:955;-10.336966;0.9528923;
2;12:11:54:965;-13.245921;-1.1408371;
2;12:11:54:975;-4.0258503;0.8571242;
2;12:11:54:985;4.06296;8.491036;
2;12:11:54:995;-9.358934;-3.217807;
2;12:11:55:005;0.18435353;-0.5327099;
2;12:11:55:015;-10.520123;5.9926867;
2;12:11:55:025;-0.47046062;-4.179079;
2;12:11:55:036;-3.989937;0.2753332;
2;12:11:55:046;2.123657;1.6436194;
2;12:11:55:056;1.3239936;2.9173348;
2;12:11:55:066;-14.768633;-8.175002;
2;12:11:55:076;-9.020155;-0.51355624;
2;12:11:55:086;4.146757;1.9644425;
2;12:11:55:096;-5.649119;-1.1731589;
2;12:11:55:106;-1.7824832;1.6627731;
2;12:11:55:116;-2.409764;0.842759;
2;12:11:55:127;-5.7508726;0.50517654;
2;12:11:55:137;-8.528147;2.7006595;
