Round;Timestamp;AccX;AccY;
8;10;-4.423288;11.536461;
8;30;-3.7689521;2.3204606;
8;80;1.5801731;5.542577;
8;133;-1.9184738;2.602258;
8;184;-1.6945589;1.2051034;
8;235;-1.6465764;1.6345143;
8;287;-2.355945;0.6773871;
8;338;-1.2796448;0.6241736;
8;390;-1.8087798;0.42889073;
8;441;-1.5573616;-0.27505746;
8;493;-3.0583324;-1.1885014;
8;548;-4.704868;-1.3055477;
8;599;-6.16597;-1.3089463;
8;650;-7.3839784;-1.2417179;
8;703;-8.448419;-1.4084755;
8;755;-8.488501;-1.5312009;
8;805;-9.448924;-2.0956676;
8;858;-8.745501;-2.9420948;
8;912;-8.559581;-2.9922485;
8;965;-8.026149;-1.6760148;
8;1017;-7.113914;0.23906666;
8;1068;-5.833041;1.6890999;
8;1120;-3.9013352;3.0880175;
8;1171;-1.9107938;3.5796394;
8;1223;-0.41919565;3.5294437;
8;1276;0.04720726;2.688254;
8;1329;0.36495093;2.226896;
8;1382;0.21617365;2.2592704;
8;1434;0.28701192;2.476267;
8;1485;0.25443214;2.4813724;
8;1535;0.8138088;2.0790274;
8;1587;1.9349649;2.0314386;
8;1641;1.9886043;2.5215898;
8;1696;1.711338;1.9733238;
8;1749;1.4623629;1.759275;
8;1803;1.2084407;2.4427717;
8;1855;0.4414929;2.0017266;
8;1906;-0.23042892;1.3563691;
8;1957;-0.9181368;1.483697;
8;2008;2.205463;0.099821545;
8;2061;2.4739208;-0.29264393;
8;2115;4.800508;-1.4917057;
8;2167;6.8290725;-2.508346;
8;2221;7.683916;-2.745855;
8;2276;9.014364;-3.628255;
8;2328;8.945021;-3.5846558;
8;2381;9.96486;-2.1838572;
8;2434;11.374698;-2.4806514;
8;2486;12.399978;-1.9223554;
8;2538;12.795184;-1.4373451;
8;2590;12.229669;-0.7674152;
8;2640;9.881821;0.27798235;
8;2692;8.345585;1.6108418;
8;2743;5.8898296;3.3695061;
8;2795;4.405547;4.553537;
8;2848;1.0498401;5.0373416;
8;2901;0.6024339;4.141597;
8;2954;-1.6876541;3.495475;
8;3008;-3.1510515;2.881229;
8;3061;-4.431625;2.2607887;
8;3114;-3.5489779;2.6818697;
8;3166;-2.4172614;3.0362809;
8;3220;-2.3017452;2.6595125;
8;3274;-2.5802302;2.2310467;
8;3327;-3.3284059;1.6629035;
8;3378;-4.7573295;1.2733731;
8;3431;-6.1047983;1.4076983;
8;3483;-6.5976715;0.8760125;
8;3534;-5.27478;1.4729968;
8;3585;-4.2698674;1.8077196;
8;3636;-3.1703947;1.6894296;
8;3686;-1.7004709;1.0146494;
8;3737;-1.0597067;1.4843367;
8;3788;-1.3019524;1.1074395;
8;3840;-1.5449525;0.39753821;
8;3891;-0.8666889;-0.2897948;
8;3945;1.391972;-0.8164093;
8;3998;3.4750516;-1.0106381;
8;4050;6.0245714;-1.4723895;
8;4104;7.9511952;-2.313454;
8;4155;8.761406;-1.8245009;
8;4207;12.25384;-2.223433;
8;4258;11.532347;-2.3658187;
8;4311;14.052695;-1.544367;
8;4363;14.81348;-1.6301228;
8;4414;14.496144;-1.4116879;
8;4464;12.462912;-0.14644943;
8;4515;10.468277;0.44179553;
8;4567;8.060458;1.376156;
8;4619;7.3920455;2.8878956;
8;4671;3.0410569;3.611819;
8;4722;3.5533721;3.9308481;
8;4775;2.9713535;3.0340276;
8;4827;4.2649684;2.1049647;
8;4877;4.183032;1.8144214;
8;4927;5.707963;1.0256273;
8;4980;6.6579804;0.44609988;
8;5032;6.1518116;0.6941816;
8;5085;5.1942973;1.3292223;
8;5137;5.140697;0.9509084;
8;5187;5.4922147;-0.87245435;
8;5240;5.9434724;-0.099244304;
8;5294;6.222145;-0.04301687;
8;5346;6.1526837;0.39765728;
8;5399;6.453094;0.8706333;
8;5452;3.6464558;0.6348492;
8;5506;1.7599459;1.0451034;
8;5560;-0.97771597;0.45399767;
8;5611;-2.7545943;-2.0371432;
8;5662;-4.3840203;-1.6941061;
8;5714;-6.369313;-2.6105108;
8;5765;-6.8768973;-2.4224515;
8;5818;-7.740463;-1.3190643;
8;5870;-10.638616;-2.353803;
8;5923;-11.146054;-2.361882;
8;5976;-11.844885;-1.7238294;
8;6027;-11.366292;-3.1227708;
8;6079;-9.937501;-2.5435772;
8;6132;-9.051207;-1.7197021;
8;6185;-5.6707664;0.04379728;
8;6237;-4.016334;2.8231833;
8;6289;-3.148997;3.7235641;
8;6342;-2.755723;3.976592;
8;6394;-3.64923;3.8808415;
8;6444;-4.7643356;3.2753372;
8;6495;-5.6163135;3.3605022;
8;6547;-6.1126933;2.7267802;
8;6600;-4.905849;2.5952804;
8;6652;-3.7819731;3.4748251;
8;6704;-2.198236;2.9582255;
8;6756;-1.4204965;2.6076653;
8;6811;-0.96194154;1.7974349;
8;6863;-0.5549697;1.3854415;
8;6914;-0.38799536;2.1932554;
8;6965;-0.16028921;1.7947234;
8;7016;-0.92813975;1.7974182;
8;7068;-2.1815085;1.2364571;
8;7121;-3.8449388;-1.7327791;
8;7174;-6.323795;-1.884443;
8;7226;-9.040301;-2.7580423;
8;7278;-10.260076;-2.3782823;
8;7333;-10.241837;-0.7747968;
8;7384;-10.49324;-0.8429952;
8;7435;-10.087961;-0.51109153;
8;7486;-9.849095;-1.6701423;
8;7539;-9.743954;-3.3938463;
8;7591;-9.550222;-1.2708391;
8;7643;-10.420458;-0.2335132;
8;7694;-9.588277;2.384747;
8;7744;-9.234853;3.8640995;
8;7797;-7.6746254;4.278646;
8;7848;-5.760894;5.1206594;
8;7901;-3.775955;4.7705894;
8;7953;-2.6661494;3.537185;
8;8006;-1.1123191;3.813308;
8;8060;-0.64564586;1.8758383;
8;8113;0.20460576;1.8676578;
8;8165;-1.0625374;-0.28677863;
8;8217;-0.48080954;-0.1636731;
8;8267;-0.6989805;0.7332747;
8;8318;-0.0988993;1.1620721;
8;8369;-0.9632755;1.7901914;
8;8421;-0.8192171;2.694817;
8;8474;-1.050447;1.8043752;
8;8525;-1.9999303;1.2885275;
8;8578;-5.092404;-0.96791255;
8;8630;-6.2331753;-1.2984843;
8;8682;-7.178246;-1.7490462;
8;8733;-8.823094;-3.0224712;
8;8784;-9.321233;-2.704682;
8;8834;-10.301065;-2.9200075;
8;8888;-10.547069;-2.0976875;
8;8942;-9.662955;-1.8627844;
8;8995;-10.622664;-2.3601336;
8;9048;-8.939351;-1.6037244;
8;9100;-7.7806826;-0.060121562;
8;9154;-6.6150327;0.3119686;
8;9207;-4.7638283;1.3245894;
8;9260;-4.5018945;1.6169846;
8;9312;-2.382521;3.2197409;
8;9365;-1.9630383;2.621084;
8;9418;-1.0532;1.4695754;
8;9470;1.2468951;1.7174944;
8;9522;0.24079387;1.2266604;
8;9574;-0.36113018;0.9513585;
8;9625;-1.6096513;0.41395652;
8;9678;-3.4894698;0.4813247;
8;9732;-5.453439;1.5624528;
8;9785;-7.2991805;1.8359443;
8;9838;-4.883043;2.1595109;
8;9889;-1.9178249;1.8103056;
8;9941;1.7063603;0.37713963;
8;9994;5.2282557;-1.0840781;
8;10045;8.367014;-2.715831;
8;10097;11.077274;-2.932867;
8;10150;11.668418;-2.4434185;
8;10204;11.684553;-1.4983484;
8;10258;12.760147;-0.99016833;
8;10310;12.27974;-0.9138668;
8;10363;13.0801325;-0.8433394;
8;10416;14.205282;-2.099634;
8;10470;12.743073;-1.9661143;
8;10523;11.878689;-0.49667573;
8;10577;9.869139;1.2666799;
8;10628;6.337197;3.2797403;
8;10679;4.061975;4.530736;
8;10730;0.94944507;5.574195;
8;10782;-0.38313663;5.7754483;
8;10833;0.67846084;4.360062;
8;10884;-0.15971713;3.8794081;
8;10935;0.5307748;3.9130788;
8;10986;1.7819153;3.7016153;
8;11037;1.419293;3.9072344;
8;11089;0.5956899;3.546298;
8;11142;0.4822036;3.1794796;
8;11195;0.153542;3.3661244;
8;11248;0.39950624;2.109356;
8;11302;0.3898651;1.5939664;
8;11355;-0.91761583;0.6500796;
8;11410;-2.2114964;-0.58259106;
8;11463;-4.032753;-1.3281538;
8;11516;-7.693177;-1.8970006;
8;11569;-7.8489394;-2.1349387;
8;11622;-7.160528;-1.6292044;
8;11674;-6.410772;-1.6628882;
8;11726;-6.498028;-0.9253433;
8;11779;-7.0796967;-1.4409156;
8;11832;-8.156469;-1.8845882;
8;11885;-8.459716;-1.5749743;
8;11937;-9.102537;-0.0069265324;
8;11989;-7.255198;1.8434069;
8;12040;-4.5623827;3.1509187;
8;12091;-3.185589;4.190153;
8;12143;-2.2472382;4.605053;
8;12195;-1.1364706;4.073073;
8;12246;-1.1257175;3.2620492;
8;12297;-0.9777857;2.271496;
8;12347;-0.5929908;2.6914113;
8;12400;-0.94656473;2.4359062;
8;12451;-0.97642297;1.9666603;
8;12504;-1.6810759;2.0196636;
8;12556;-2.3204706;1.1352298;
8;12607;-2.4271746;1.0339272;
8;12658;-2.7530699;1.2023071;
8;12711;-2.574686;1.9147811;
8;12764;-2.4545612;2.0849068;
8;12816;-2.3352315;1.5782328;
8;12870;-2.5337102;1.2720972;
8;12924;-1.9286289;1.8300583;
8;12977;-1.226991;0.45818806;
8;13029;-0.56104046;0.582303;
8;13081;0.6185268;0.49683315;
8;13134;2.6129332;0.851661;
8;13186;2.8474228;-1.0258398E-4;
8;13237;4.23839;0.019841801;
8;13289;4.889074;0.26446706;
8;13340;5.4212737;0.699056;
8;13391;5.766645;0.24266326;
8;13442;4.8092265;1.0418;
8;13493;4.313865;0.5283122;
8;13545;3.3502092;0.48900065;
8;13596;0.8659796;-0.32808858;
8;13647;0.3045672;0.4868977;
8;13699;-0.681621;0.11509687;
8;13750;-0.38738188;-0.16024563;
8;13801;-0.13629225;-0.56389666;
8;13852;0.082725324;-0.50915754;
8;13904;0.6066855;-1.5763747;
8;13957;0.4761674;-1.4543418;
8;14011;-0.47168884;-1.4002755;
8;14063;-0.6899612;-2.0650911;
8;14116;-0.21704736;-4.834151;
8;14169;-0.49393928;-4.748795;
8;14222;-1.2372074;-6.651671;
8;14273;-1.6613913;-9.236797;
8;14324;-2.1171064;-9.833322;
8;14376;-3.6285074;-8.637005;
8;14429;-5.8135843;-6.6381803;
8;14484;-7.4811964;-5.669667;
8;14534;-7.0041666;-4.5423098;
8;14587;-7.936625;-1.7083032;
8;14640;-7.617397;-1.4420887;
8;14692;-7.33778;-2.2022457;
8;14744;-7.008681;-1.6419789;
8;14796;-7.816308;-2.5877602;
8;14847;-7.3146644;-2.101061;
8;14898;-6.741436;-0.43299922;
8;14951;-5.457885;1.1652828;
8;15005;-5.4415836;3.719443;
8;15056;-4.121476;4.7835846;
8;15107;-3.3227344;6.0091767;
8;15158;-1.8635118;6.141754;
8;15209;-1.4589348;4.6809883;
8;15259;0.71797127;3.479406;
8;15309;2.1959555;3.6476462;
8;15361;3.0197446;3.4662442;
8;15413;3.2194922;3.8775327;
8;15465;4.081269;2.8754497;
8;15518;4.2735696;3.3328385;
8;15569;4.6393437;3.2144313;
8;15620;3.6677577;2.7106748;
8;15673;2.1794758;1.6962575;
8;15724;1.1758361;2.2156136;
8;15776;0.3365812;2.393754;
8;15828;-0.63681406;2.5336893;
8;15880;-1.0673;2.2222402;
8;15934;-1.4364641;1.7540578;
8;15989;-1.7317675;0.5828918;
8;16041;-1.4387121;-0.30237108;
8;16091;-2.3416715;-0.86122215;
8;16142;-1.372715;-1.7609116;
8;16193;-0.658114;-1.9296272;
8;16244;-0.52769446;-1.9233764;
8;16295;-0.48492008;-0.45135677;
8;16347;-0.65372485;-1.2731411;
8;16401;-1.1375484;-0.6490081;
8;16452;-2.9097323;-1.9592905;
8;16502;-3.554614;-3.7973657;
8;16553;-3.2930145;-7.2124887;
8;16604;-3.43857;-9.3188925;
8;16655;-3.631111;-10.605752;
8;16708;-4.617148;-8.963811;
8;16760;-4.6485796;-8.391671;
8;16811;-5.4756722;-5.021406;
8;16863;-7.578017;-3.2343116;
8;16915;-6.6386437;-1.9245051;
8;16966;-6.0101476;-1.4626439;
8;17016;-5.2431064;-1.0676274;
8;17066;-5.2197003;-1.319572;
8;17116;-5.72209;-1.0756041;
8;17166;-5.372878;-1.1397883;
8;17216;-5.1699224;-0.8898118;
8;17270;-5.5147676;-0.7462602;
8;17321;-3.63087;-0.58698165;
8;17372;-2.9519832;0.39149854;
8;17423;-2.7424948;1.8251455;
8;17476;-3.0747209;2.3296356;
8;17528;-2.8990655;3.1423576;
8;17580;-2.2325716;3.5429778;
8;17634;-1.4688147;3.7013674;
8;17684;-1.0855216;2.1640317;
8;17738;-0.16273935;1.7673084;
8;17793;-0.6464739;1.8735954;
8;17846;-1.6470585;1.9351618;
8;17897;-1.9237919;1.473227;
8;17947;-2.9108696;1.2088737;
8;17998;-4.361898;0.8078784;
8;18051;-5.709826;0.42811334;
8;18104;-5.6672497;-1.0224984;
8;18155;-4.9471436;-1.4177415;
8;18209;-3.3675246;-1.6645577;
8;18262;-1.7500111;-1.8495684;
8;18314;0.42043433;-1.5941619;
8;18365;1.5782578;-1.4905956;
8;18416;2.1964552;-0.73315114;
8;18466;1.0226929;-0.99477106;
8;18516;1.282297;-0.73809606;
8;18567;0.51869804;-0.9163366;
8;18618;-0.23855194;-1.449345;
8;18670;0.26597792;-1.6761081;
8;18721;0.5869524;-1.5280397;
8;18771;1.967305;-1.2260885;
8;18821;3.6951857;-1.0844231;
8;18872;3.4189095;-1.1411471;
8;18925;4.5261154;-0.762662;
8;18976;3.765904;-1.1909899;
8;19027;2.861721;-1.5866301;
8;19077;2.5045993;-1.6461856;
8;19128;1.7055298;-1.1517199;
8;19180;1.280819;-0.7293722;
8;19232;0.90677226;-0.7213533;
8;19283;0.51405907;-0.66363955;
8;19333;0.7830397;-0.90744185;
8;19385;0.08526263;-0.6850008;
8;19435;0.16361834;-1.1846801;
8;19488;-0.45337158;-0.50482833;
8;19538;-1.4423552;0.15626249;
8;19589;0.725922;-2.0887017;
8;19639;-6.0841455;3.919787;
8;19671;-6.939594;-0.24660277;
8;19671;-6.939594;-0.24660277;
