Round;Timestamp;AccX;AccY;
2;10;20.919338;1.6089035;
2;30;10.0171;-11.008539;
2;81;-5.445612;-14.073117;
2;132;2.2287626;4.6047683;
2;183;-0.93349934;-7.3291306;
2;235;-5.3041143;-0.23511057;
2;287;-5.282088;2.2117636;
2;338;3.4086251;1.1025299;
2;390;0.5197811;-0.6622362;
2;442;-0.2097321;-0.85640585;
2;492;1.1365274;0.14030023;
2;545;1.0577583;1.2964603;
2;599;0.70628947;-0.6349423;
2;652;-2.0800824;-0.8118738;
2;705;-2.1207838;-0.0011970758;
2;756;2.3130386;-0.49966985;
2;808;0.042137958;0.41323924;
2;862;-2.347036;-0.7802703;
2;914;-5.538028;-3.947081;
2;967;-8.917923;-4.5623903;
2;1020;-6.51989;-2.3642743;
2;1072;-6.671922;-1.570357;
2;1124;-7.700471;-1.8114531;
2;1176;-7.335595;-2.1502323;
2;1228;-9.050082;-3.2592266;
2;1280;-8.119216;1.5365988;
2;1332;-1.875857;2.188779;
2;1383;-1.1429919;3.6942532;
2;1433;0.46758756;2.3218968;
2;1486;0.16807298;2.550543;
2;1537;0.9169792;2.2218192;
2;1589;-0.6512229;3.4112587;
2;1641;0.5985504;1.237563;
2;1694;-1.7487249;1.3673286;
2;1746;-6.037698;1.4082695;
2;1797;-3.542221;1.6326059;
2;1850;-0.52456963;2.6965895;
2;1904;-1.9876664;1.3338099;
2;1958;1.0443506;0.6856994;
2;2011;-0.46064448;0.91745806;
2;2064;-1.6828845;0.8324639;
2;2117;0.7673415;1.9656397;
2;2170;-0.5686228;-0.8887278;
2;2222;-4.089297;0.5827487;
2;2275;-8.576749;-1.7010803;
2;2328;-7.164888;-1.1736376;
2;2380;-4.289691;-0.9600749;
2;2431;-4.6196127;-1.1774683;
2;2483;-3.5948937;-3.1268272;
2;2534;-1.5617378;0.7905654;
2;2587;2.183991;-1.6608578;
2;2640;0.26910815;-1.3251907;
2;2693;8.911937;-2.960191;
2;2745;11.033439;-6.303215;
2;2797;-0.5705384;-2.5469518;
2;2852;17.10633;2.0956447;
2;2905;8.725668;-2.530432;
2;2957;4.260003;-5.1958966;
2;3010;10.645818;-3.6980844;
2;3062;5.1678843;5.896919;
2;3114;10.916363;1.0963048;
2;3167;6.7475786;3.23313;
2;3221;9.213846;3.0142999;
2;3276;2.7875686;1.7901446;
2;3328;7.3308067;-0.28634652;
2;3381;6.289089;5.5679555;
2;3433;-1.2593501;3.2793381;
2;3486;-0.5080496;2.936728;
2;3539;0.44484273;2.1349096;
2;3591;4.3275194;2.3597255;
2;3643;7.261134;1.0117896;
2;3697;5.992208;2.7222073;
2;3749;4.036624;1.9438524;
2;3802;1.911052;-0.32130188;
2;3853;4.2612;4.6342173;
2;3906;-2.3942015;0.36727053;
2;3958;1.3034035;1.807383;
2;4011;-0.9155428;-2.443522;
2;4062;4.679228;-3.5585017;
2;4113;6.057809;-1.1444285;
2;4163;11.731348;-1.1475408;
2;4214;2.9975407;-4.799177;
2;4267;5.5748987;0.8954315;
2;4317;-0.6959945;-1.0311825;
2;4369;-5.0046;-0.98904455;
2;4423;-6.3135095;-1.7302897;
2;4475;-3.180697;-3.6904225;
2;4526;-3.0928295;0.641646;
2;4578;-5.3321266;0.47620672;
2;4629;-6.1107206;-3.2324116;
2;4681;0.80732477;-0.39552212;
2;4734;0.023702526;-0.2705448;
2;4784;1.0366894;-0.61052144;
2;4834;0.4043807;-0.66870064;
2;4886;-0.99622726;0.13503298;
2;4938;5.1913476;-2.6791117;
2;4991;6.3101583;-0.9026141;
2;5044;11.398794;-3.173275;
2;5095;7.9736495;-3.4718318;
2;5147;8.352173;-2.4037786;
2;5200;8.704838;0.06847417;
2;5252;4.763264;5.1290984;
2;5304;6.0604424;2.1188684;
2;5356;6.1112;2.9257145;
2;5408;3.4268208;2.4744077;
2;5461;6.089891;3.7457283;
2;5513;2.3297977;3.7462075;
2;5565;1.8605341;2.5802312;
2;5619;1.0769119;1.8897434;
2;5670;3.8522706;3.4840424;
2;5721;5.8339515;1.0515335;
2;5774;4.8214436;1.2945448;
2;5826;5.881835;2.0578163;
2;5880;5.1463366;-0.57700264;
2;5932;-0.4012683;-2.9077578;
2;5983;0.6215351;9.197565;
2;6035;0.64140666;1.5145718;
2;6087;0.32249898;0.6545749;
2;6141;2.6611552;0.20566206;
2;6193;-0.45609552;-1.6400282;
2;6245;-9.093417;-0.90620536;
2;6296;-6.562986;-2.2220588;
2;6347;-5.1372385;-7.2201943;
2;6399;-5.187278;0.70892316;
2;6452;-15.191211;-3.7703888;
2;6505;-8.566214;-2.3223755;
2;6558;-8.269812;-2.16771;
2;6612;-10.069294;-0.2942474;
2;6664;-9.925882;-1.319205;
2;6717;-6.5993776;-2.818933;
2;6770;-7.991128;-4.4587216;
2;6823;-7.349241;-0.7295133;
2;6876;-4.846822;1.2385205;
2;6928;-3.0018501;-0.42449197;
2;6980;1.1903971;-0.13599062;
2;7032;1.897644;3.1620224;
2;7084;-0.3007117;3.7126884;
2;7137;-2.2069752;1.9627666;
2;7190;-0.7038952;2.3903708;
2;7242;0.77093303;2.9307425;
2;7295;-0.9823408;2.6977866;
2;7349;0.33614603;1.7063475;
2;7402;0.8350975;2.726038;
2;7454;-1.0139444;3.0789433;
2;7505;1.652478;-0.76710224;
2;7556;1.3457807;1.5734694;
2;7607;-1.1212046;3.4445376;
2;7661;-0.1838746;1.4882358;
2;7713;-0.4560953;2.514151;
2;7765;-0.11827354;3.2005687;
2;7817;0.18291704;0.37445316;
2;7870;-0.13000497;1.9440916;
2;7922;0.6720524;2.3709779;
2;7975;0.23630777;-0.84754735;
2;8027;1.5981295;1.5480909;
2;8078;-0.36607343;0.85856074;
2;8129;3.7227445;2.1916523;
2;8180;5.1302953;0.41994295;
2;8232;4.570052;-0.6512228;
2;8285;4.4685383;-1.625663;
2;8337;-1.5751451;-3.3842041;
2;8389;-6.359239;-1.3479356;
2;8439;-7.8975143;-2.3858218;
2;8492;-8.898529;-4.1283216;
2;8544;-6.0810328;-0.4170699;
2;8596;-14.003207;-2.4107215;
2;8647;-6.668331;-1.5784972;
2;8699;-8.490079;-3.4653676;
2;8752;-9.596918;-3.3978508;
2;8805;-4.940914;0.16352394;
2;8857;-11.005905;-0.8350975;
2;8908;-9.804975;-1.8655621;
2;8960;-4.971799;0.34811693;
2;9013;-2.8771122;3.1759086;
2;9065;-3.5223496;2.0525491;
2;9117;-0.43263236;2.7162216;
2;9170;-1.0110714;2.2531834;
2;9221;0.39145198;3.041594;
2;9273;-2.2819135;1.8921378;
2;9326;-1.0448297;1.7099388;
2;9379;1.1338937;2.821806;
2;9431;0.16448173;2.6341007;
2;9484;2.0994754;1.4183251;
2;9538;3.7375884;0.17094602;
2;9591;4.7637434;2.1279664;
2;9643;4.7429137;2.4399312;
2;9696;2.2596476;-0.9742006;
2;9749;3.633201;2.6496632;
2;9803;-0.3646369;5.701552;
2;9856;0.22050592;-1.0010159;
2;9909;0.4501099;0.84108305;
2;9962;1.3034034;-3.526659;
2;10015;-3.399527;0.60908496;
2;10067;-3.3851619;-0.76590526;
2;10119;-5.46285;-3.0183702;
2;10173;-7.2178;-2.3934834;
2;10227;-11.728236;-2.1286845;
2;10280;-3.174472;-5.9325924;
2;10331;-10.018777;0.35841197;
2;10381;-14.902708;1.1389215;
2;10434;-11.730631;-3.2082303;
2;10487;-0.1951273;-6.295074;
2;10539;-17.991467;-5.596925;
2;10591;-3.1531637;6.854599;
2;10643;-6.134902;4.684016;
2;10694;-5.2334857;3.757939;
2;10746;-0.05937624;4.3576865;
2;10797;5.5646033;-0.78984725;
2;10848;0.43526593;4.63302;
2;10901;-1.0912771;1.2792221;
2;10953;-2.3831882;3.178782;
2;11005;-3.9777267;-2.2483947;
2;11056;-2.6537333;1.4350846;
2;11108;-2.561317;2.8840554;
2;11161;-5.0733137;-0.5422867;
2;11215;0.06895304;4.6543283;
2;11267;-4.355532;0.30023286;
2;11320;-0.80062103;1.5691599;
2;11374;-3.293943;-1.2981361;
2;11427;-0.52145714;1.9124882;
2;11479;-2.4722526;-1.4844052;
2;11531;-3.9094918;3.0743945;
2;11582;-4.073255;1.9237411;
2;11633;-10.668562;-3.6422992;
2;11685;-2.7645845;2.011369;
2;11738;-4.3339834;-2.0982785;
2;11791;-3.9252934;1.3383586;
2;11843;-0.34404677;0.18938133;
2;11895;2.268985;0.66486967;
2;11948;-0.12521668;-2.5129542;
2;12001;0.39145193;0.05602436;
2;12054;3.2561142;-5.2524;
2;12106;8.817606;-3.033214;
2;12157;6.4035316;-3.4079068;
2;12209;16.440025;1.4800955;
2;12261;8.135976;-4.211879;
2;12311;1.8325218;-4.235582;
2;12363;13.28327;-2.307771;
2;12414;9.054632;-2.9860485;
2;12465;12.5348425;-1.8186356;
2;12516;16.922216;-2.947741;
2;12567;9.879674;2.7167008;
2;12617;6.976943;-2.5838225;
2;12667;7.318835;4.251384;
2;12718;7.2580223;5.629247;
2;12768;7.4421372;1.2715604;
2;12818;-3.373909;3.4265816;
2;12868;-1.0663774;2.9910762;
2;12918;2.7466283;3.3099837;
2;12969;1.1798626;0.8281544;
2;13021;7.951383;-0.17238255;
2;13072;6.3726463;1.4073117;
2;13123;2.8464665;8.312669;
2;13173;6.531621;0.24851814;
2;13224;2.5634718;1.8231846;
2;13274;1.7056293;3.9832337;
2;13324;5.3931785;-0.08714905;
2;13374;6.2555704;1.0127473;
2;13424;4.179797;0.5712565;
2;13474;6.562028;0.07374132;
2;13525;9.175778;2.1272483;
2;13575;4.5793896;1.3522451;
2;13626;7.7426085;2.694674;
2;13677;4.898058;4.460637;
2;13732;0.475249;0.76207453;
2;13782;-1.853591;0.92607725;
2;13833;-2.0089746;1.084334;
2;13884;-2.8450298;0.47907978;
2;13935;-5.8528657;1.3924677;
2;13986;-9.658209;-0.06895302;
2;14037;-6.966648;2.1533449;
2;14088;-8.931569;-0.4843471;
2;14139;-7.846517;-3.233609;
2;14190;-6.3889275;-1.2725182;
2;14241;-9.83993;-2.2117634;
2;14291;-10.128431;-2.2534227;
2;14344;-9.703939;-1.1817781;
2;14398;-5.983589;-0.43957543;
2;14450;-8.967242;-4.7283087;
2;14504;-6.0997076;0.3361459;
2;14554;-11.660002;-1.2457032;
2;14605;-7.988014;0.6380547;
2;14658;-5.3589416;2.606328;
2;81009;-7.233123;1.4702792;
2;81060;-1.9922154;3.108871;
2;81112;0.20302837;2.6106372;
2;81164;-1.5540764;4.344758;
2;81215;0.8643068;2.796188;
2;81266;-6.8555574;-1.4137762;
2;81316;-4.109168;2.6994624;
2;81367;-4.736928;-0.6119579;
2;81418;-1.3534424;3.6841977;
2;81469;-4.2023025;1.434366;
2;81521;-7.3722258;0.20063412;
2;81572;0.1735797;4.6758757;
2;81622;0.28874055;-0.79966325;
2;81674;-2.1164742;1.2150571;
2;81725;0.5556942;1.3599064;
2;81775;-4.1070137;3.6863525;
2;81825;-1.7580624;0.8475477;
2;81876;4.4125133;0.29759932;
2;81927;1.1657368;3.7675157;
2;81979;0.315077;-0.42042178;
2;82029;-3.6664803;1.6019604;
2;82079;-0.29281107;0.9694122;
2;82130;0.1831564;-0.311725;
2;82180;1.3397954;1.1099519;
2;82231;-0.647153;-0.41036624;
2;82282;1.7436968;-0.83318216;
2;82333;2.5079262;1.3153745;
2;82383;1.6069882;2.8323407;
2;82434;-2.3369803;1.0160992;
2;82485;-1.6464924;-2.6989834;
2;82536;0.47740382;2.189258;
2;82586;-0.17573442;0.4278438;
2;82636;-2.790921;1.0438719;
2;82687;-0.19416976;-0.7860165;
2;82737;-2.858198;-0.8140286;
2;82787;-1.0292672;0.11252747;
2;82837;-0.29568395;0.15418664;
2;82888;-0.9792285;2.1935678;
2;82938;-0.024420882;-0.9528921;
2;82989;-3.0779858;-0.093134545;
2;83039;-0.69862807;-0.5487511;
2;83090;-4.1695023;-2.0403388;
2;83142;0.6878542;3.4826057;
2;83194;-2.8890834;0.15394726;
2;83245;-0.1721429;-0.7173028;
2;83296;0.36439747;2.0635624;
2;83347;-0.56718636;-2.4899697;
2;83398;-1.6893489;0.67444664;
2;83449;-2.5213337;-1.4257472;
2;83499;2.1928494;0.69575495;
2;83549;1.0771514;0.5762843;
2;83599;-0.8983046;-0.96845466;
2;83649;-2.20075;-3.9315186;
2;83700;0.42640728;-1.5468936;
2;83751;0.0802057;-0.21068975;
2;83802;-2.8414388;-1.6654066;
2;83853;-9.344568;-10.391793;
2;83903;-15.083949;2.2876601;
2;83953;9.247603;-3.8592134;
2;84004;-17.1365;-3.8053443;
2;84054;-0.54084986;0.5621586;
2;84105;-19.672436;-10.236888;
2;84156;-10.5634575;-1.9644425;
2;84207;-3.9133224;1.645056;
2;84258;-6.561789;-2.9120674;
2;84309;-13.839684;-2.851973;
2;84359;-8.759905;-1.2840103;
2;84409;-7.77086;-0.41347867;
2;84460;-9.086473;0.22290015;
2;84511;-7.823533;0.2157176;
2;84562;-7.8766847;-0.14030018;
2;84612;-7.0877943;-2.1736958;
2;84662;-5.1235914;-2.4112005;
2;84713;-2.0211852;4.2501864;
2;84764;2.9764714;3.8750153;
2;84815;-0.40246543;3.6327224;
2;84865;0.25354594;1.6833632;
2;84915;-0.28921956;3.037045;
2;84965;0.86646146;0.9141062;
2;85015;5.0048394;1.2040441;
2;85066;2.1392193;0.59136784;
2;85117;2.8663383;1.9225441;
2;85167;3.4747047;1.6795324;
2;85218;4.0272865;2.3546975;
2;85269;-1.978329;1.0429143;
2;85319;0.21667528;2.296039;
2;85371;1.5215151;0.26551703;
2;85422;-0.16927011;0.940203;
2;85472;0.20518303;2.028607;
2;85522;2.4495077;2.1569362;
2;85574;3.1318552;0.78841066;
2;85625;1.5234306;0.43215337;
2;85676;2.5249252;4.292804;
2;85728;1.8662802;1.3048398;
2;85779;3.711731;0.29400802;
2;85830;5.6553435;-0.93804824;
2;85881;3.3059134;-1.8964472;
2;85932;3.8783677;-1.0465057;
2;85983;7.092344;-1.1762712;
2;86033;4.02992;-0.2786851;
2;86084;3.0614657;-0.979468;
2;86134;1.3850456;-1.5643713;
2;86185;0.5712564;-1.4228741;
2;86236;2.9513326;0.7587226;
2;86287;-2.0010738;-0.79894507;
2;86338;-5.7353106;-3.1857247;
2;86389;-5.1590257;-0.10582367;
2;86440;-8.65863;-2.3360226;
2;86491;-8.857349;-3.5652058;
2;86542;-10.01758;-1.8928559;
2;86593;-9.226056;-2.9032092;
2;86644;-8.475954;-0.8789114;
2;86696;-14.084849;-7.2489243;
2;86746;-5.7554207;4.510436;
2;86798;-3.8802826;0.64858943;
2;86848;-12.977053;-0.32513264;
2;86899;-5.119282;-2.726996;
2;86950;-7.4646425;-4.689044;
2;87001;-7.1428614;-1.2919112;
2;87052;-8.131187;4.1599255;
2;87103;-7.7648745;2.3405716;
2;87153;-6.144479;0.7584831;
2;87203;0.1910572;3.3044772;
2;87254;3.2814927;2.127009;
2;87305;3.0269895;1.7015593;
2;87357;4.4137106;1.1128249;
2;87409;4.6370897;-1.1647791;
2;87460;1.085531;-1.0342951;
2;87511;1.7190368;-1.3558363;
2;87562;-1.1152192;-1.9443314;
2;87612;-0.111090995;-0.39791638;
2;87662;2.1588516;0.38307232;
2;87713;-1.1611878;-4.069664;
2;87764;0.8542512;1.0132263;
2;87814;-0.8628702;-1.5576675;
2;87865;-2.441128;-2.2048202;
2;87915;1.1073183;-1.2354081;
2;87965;0.007422066;1.8926165;
2;88017;-3.2180467;0.7398083;
2;88068;-2.3381772;-1.4341269;
2;88119;-0.9830593;-1.4465768;
2;88170;-0.50278234;-0.7845799;
2;88221;-2.991555;-0.16472107;
2;88271;-0.35146883;-1.4973338;
2;88322;0.4812345;-2.1136012;
2;88372;-2.8476634;0.080684565;
2;88423;-0.9478644;-1.4202404;
2;88475;0.09026146;0.71395093;
2;88526;-0.8796295;1.5631744;
2;88577;0.87627774;-0.7757214;
2;88628;1.1525687;0.06799531;
2;88679;-1.4573504;-2.4090457;
2;88730;0.5327099;-0.030885171;
2;88781;0.19752161;-0.29472628;
2;88831;0.38881844;-1.5119383;
2;88881;2.3566127;1.1537658;
2;88933;1.1008539;-1.7717092;
2;88983;0.326569;-0.32609025;
2;89033;0.4381389;-0.81211317;
2;89084;-0.34093422;-0.8429983;
2;89135;-2.195004;-0.7137116;
2;89186;-1.1049241;3.2623394;
2;89237;-0.94307595;2.400666;
2;89289;0.84898394;1.7245436;
2;89339;-4.059369;0.30717605;
2;89380;-2.5717716;-1.2733163;
2;89390;-4.203021;-4.9787426;
