Round;Timestamp;AccX;AccY;
6;10;0.1340753;-1.4089876;
6;30;-2.5740063;-0.4122815;
6;81;0.4692635;-4.1252093;
6;131;-1.0929531;1.2988545;
6;183;0.5382164;-0.5980717;
6;234;-0.84108305;0.32106242;
6;285;0.29113498;2.604652;
6;335;-0.0038307072;-0.12210424;
6;390;-0.5868188;4.373967;
6;443;0.5755661;0.9782708;
6;494;-2.7054482;0.6186617;
6;547;-1.0024523;1.0730813;
6;600;0.03351879;1.4166491;
6;651;-0.7675811;0.749864;
6;704;0.80133927;4.022498;
6;756;-6.720763;-2.8498182;
6;809;-5.3541536;-0.16041145;
6;861;-4.922718;-1.5626955;
6;914;-8.303091;-0.53342813;
6;965;-6.210559;1.0828974;
6;1018;-5.739141;0.7721301;
6;1070;-9.467871;-0.38067812;
6;1122;-6.0108824;1.0390837;
6;1175;-5.813361;-1.1461045;
6;1229;-6.5170164;-0.09888047;
6;1283;-14.009432;-1.5167267;
6;1335;-2.846227;2.8572402;
6;1386;-8.698853;0.066079944;
6;1437;-4.5714884;1.1786655;
6;1487;-5.105635;2.1751323;
6;1537;-1.3297398;1.3388377;
6;1589;-1.4784194;0.5635952;
6;1641;-0.46686935;2.9242778;
6;1693;-2.8450298;0.6596026;
6;1744;-4.145321;-0.090740204;
6;1795;-5.0680466;1.7027563;
6;1846;-6.013277;0.62464726;
6;1897;-3.8632839;2.0767305;
6;1947;-2.662831;2.1308396;
6;1998;-0.8868123;-0.13479356;
6;2052;-0.41395745;0.7635109;
6;2102;-0.61698586;0.36415824;
6;2153;0.37804443;1.994849;
6;2205;-0.6366183;1.6802509;
6;2256;-0.21835122;0.059615515;
6;2307;3.8458061;0.770933;
6;2359;5.2215147;-7.241263;
6;2410;5.87992;3.7905;
6;2462;16.803465;2.2471979;
6;2515;18.986738;-4.2106824;
6;2567;3.7861905;2.771528;
6;2621;10.406877;-3.5290534;
6;2674;4.6473856;-8.960539;
6;2727;7.210138;-1.0675745;
6;2779;10.342473;-6.7231574;
6;2830;9.941204;-2.19668;
6;2882;10.905351;-1.3958194;
6;2933;7.179971;-1.1951853;
6;2984;6.8732734;2.1890187;
6;3034;1.6127342;8.550412;
6;3085;4.4984655;4.9761095;
6;3135;-2.8898015;2.0587742;
6;3188;1.4674062;5.616558;
6;3241;-0.47069997;5.2727504;
6;3293;-2.5730488;-0.20398593;
6;3344;1.0295067;4.9737144;
6;3396;-2.1526268;-1.1480197;
6;3448;0.04740534;3.293943;
6;3501;-2.7246015;1.472434;
6;3554;-2.9618669;0.017238129;
6;3607;-3.6911407;1.1446679;
6;3659;-1.5911863;-0.584664;
6;3710;-3.7105339;3.5151668;
6;3761;-1.2035652;1.3445837;
6;3813;0.12545624;0.48075575;
6;3867;-2.030283;2.9307423;
6;3918;-0.25043344;2.698744;
6;3969;-0.53701943;-2.7423186;
6;4020;0.38738182;3.9736564;
6;4073;-0.22481556;-0.7541736;
6;4124;-4.491762;2.0736182;
6;4176;-1.9182346;-1.6139313;
6;4228;1.1741165;-1.5382745;
6;4280;-1.6771383;3.013103;
6;4332;3.320279;-2.373851;
6;4385;6.7061586;-4.3847413;
6;4437;8.862856;-1.3235147;
6;4487;9.812157;-3.360501;
6;4539;10.97095;-1.6244657;
6;4592;18.400396;-2.0515914;
6;4643;9.569385;-4.303578;
6;4695;10.974063;-5.148012;
6;4746;13.672328;-0.55018747;
6;4800;11.416033;-1.3613431;
6;4853;-1.4614204;0.32273838;
6;4905;21.523634;-6.276639;
6;4955;11.837412;-2.4720135;
6;5006;5.216726;8.0749235;
6;5058;6.270175;3.6061466;
6;5109;6.9072723;4.174051;
6;5161;-1.7762585;0.2308011;
6;5214;0.49464208;7.3473268;
6;5265;-4.135026;3.5218704;
6;5317;-0.850181;4.7922344;
6;5368;0.12976566;2.4365792;
6;5420;2.453099;3.8790855;
6;5472;-1.3603853;0.46662992;
6;5524;-0.33806118;2.3489509;
6;5576;3.6739025;2.4021027;
6;5629;6.104975;-0.8063671;
6;5680;7.786662;0.43646297;
6;5733;6.0202203;1.1389217;
6;5785;-1.894532;-0.051475335;
6;5837;0.37086183;2.4832664;
6;5888;1.3328521;2.1236567;
6;5941;-0.19081792;-1.1738771;
6;5992;-0.280361;-2.421256;
6;6045;-4.0902543;-2.7655423;
6;6098;-7.9200196;-2.757402;
6;6150;-9.149202;-2.392047;
6;6202;-6.4739213;-0.98688996;
6;6254;-11.222819;-4.4843397;
6;6305;-14.271837;-6.572802;
6;6358;-14.29051;-6.8680067;
6;6411;-14.338875;-0.17549515;
6;6463;-4.073255;-2.131797;
6;6514;-4.475481;-0.02873044;
6;6566;-14.276385;-4.5676584;
6;6619;-8.867166;0.036391906;
6;6670;-3.484282;0.4381389;
6;6722;-5.6622877;-0.025139142;
6;6773;-0.514993;1.4281412;
6;6826;-2.0300436;2.270182;
6;6879;3.0418334;2.2886176;
6;6932;-1.781286;0.42544967;
6;6984;-4.3256044;-0.73525935;
6;7036;1.1853693;2.5890896;
6;7086;0.5133168;0.95576537;
6;7138;-0.61435217;0.19991584;
6;7191;-0.22816753;-1.569878;
6;7243;-0.107978486;-1.8148048;
6;7295;-3.9006333;-1.4377182;
6;7347;-7.8036613;-2.2380996;
6;7400;-7.88267;-2.2809558;
6;7451;-10.036734;-3.720829;
6;7503;-6.3798294;-1.1774684;
6;7555;-13.185826;-0.04285624;
6;7606;-5.4887075;3.0928297;
6;7658;-5.8399363;5.670188;
6;7709;-7.0956955;4.5001416;
6;7759;-5.1815314;2.4995465;
6;7811;-5.871062;3.9200263;
6;7862;-2.9697678;4.7668552;
6;7912;-2.8888438;3.695211;
6;7962;-0.9967062;3.2266655;
6;8014;-3.1502905;3.8134847;
6;8067;-1.8940529;2.176808;
6;8120;-0.71610576;3.172078;
6;8172;-0.036631204;1.0558431;
6;8225;2.5421634;0.43670243;
6;8278;-1.128866;6.792829;
6;8331;3.2388763;1.3855245;
6;8384;2.2457614;-2.1011515;
6;8438;-5.108508;1.4616601;
6;8489;-1.1925519;-1.9347541;
6;8541;-1.2129025;3.9099708;
6;8594;-1.2514493;2.4293962;
6;8646;-2.2967575;1.8550274;
6;8699;-1.4178462;-3.7782898;
6;8751;-4.5645456;-3.2266655;
6;8802;-7.6817956;-1.4437037;
6;8855;-9.401312;-2.155021;
6;8908;-10.507672;-2.7665;
6;8960;-9.469786;-0.5025429;
6;9012;-8.381621;-2.3422475;
6;9065;-8.638759;-2.092293;
6;9118;-8.488163;-3.0918717;
6;9171;-10.066421;0.3830723;
6;9224;-6.7430296;-3.1797395;
6;9277;-11.796472;-2.7629087;
6;9331;-9.306501;-1.1848904;
6;9383;-4.6318226;-0.19800062;
6;9434;-6.0994687;1.5370775;
6;9486;5.0510473;4.0383;
6;9538;-2.1679502;3.8759732;
6;9591;-5.167166;5.5983615;
6;9645;-1.1496956;2.96067;
6;9698;-1.9136856;2.9805417;
6;9752;-5.0505686;2.5979483;
6;9803;2.736812;3.937983;
6;9855;3.7114913;3.1850064;
6;9907;-0.019392967;1.7511193;
6;9958;-0.43981487;2.2294807;
6;10012;-4.857835;2.4219747;
6;10065;-0.20542252;1.7743429;
6;10119;0.25761628;-4.401979;
6;10172;-0.84635;0.052193545;
6;10224;5.864597;-3.4914641;
6;10276;10.035776;0.4321533;
6;10328;7.796239;-5.432683;
6;10382;12.017456;-0.8185776;
6;10437;10.059478;-1.8679559;
6;10489;12.006681;-5.78487;
6;10540;3.0624237;-7.0669656;
6;10592;13.24185;1.0350134;
6;10645;1.7791313;-4.87675;
6;10696;12.695733;-1.1877635;
6;10748;14.246938;2.2132;
6;10800;7.562804;4.7764325;
6;10852;3.9839516;3.8036683;
6;10904;5.3670816;6.8828506;
6;10956;5.408741;4.5942335;
6;11009;2.2292411;6.1715336;
6;11062;5.1688414;6.008728;
6;11114;1.4144943;2.7791893;
6;11165;-0.8829815;4.6342173;
6;11218;-2.8708873;3.0243556;
6;11271;3.0018501;5.880638;
6;11324;-0.633506;1.5035586;
6;11376;-0.5137957;3.15053;
6;11429;-3.5958514;3.7622485;
6;11480;-0.045489836;3.3444602;
6;11531;-3.0684087;0.75177926;
6;11583;-0.8408437;0.053630162;
6;11635;-4.297353;-0.44364554;
6;11687;-7.18452;-1.0970232;
6;11741;-6.5756745;-4.4534545;
6;11794;-10.998484;-3.7897816;
6;11846;-11.108377;0.69168484;
6;11899;-6.3685765;0.65170175;
6;11952;-10.606074;-2.6448746;
6;12005;-14.705666;-3.070803;
6;12056;-3.5568264;-1.121444;
6;12106;-8.377312;-1.09008;
6;12158;-6.761944;-1.2459426;
6;12210;-11.750263;-1.5279796;
6;12262;-8.554243;3.793134;
6;12315;-10.192595;5.2928615;
6;12368;-3.8558617;5.418557;
6;12421;-9.371384;8.473079;
6;12474;2.1578941;0.8978257;
6;12526;0.23511067;5.0170493;
6;12577;0.6442795;3.139756;
6;12629;-1.3421894;1.1350911;
6;12681;0.823366;3.1124623;
6;12732;-3.8470032;3.5826836;
6;12784;-2.3487117;2.7183766;
6;12837;0.8422802;2.6084828;
6;12890;-3.2623394;-0.29903573;
6;12944;-3.335123;1.6139313;
6;12998;-1.9934123;4.2882547;
6;13050;-0.07278373;3.4059913;
6;13101;-1.0601525;3.7114918;
6;13153;2.4174256;-1.2016499;
6;13205;0.065122284;1.9558235;
6;13257;-0.58897364;1.1992556;
6;13310;-4.2377367;0.9299079;
6;13363;0.07182604;-0.67899555;
6;13417;-1.5265429;-1.149935;
6;13469;-1.3101072;2.0551827;
6;13520;2.6060886;2.92763;
6;13572;1.850239;0.90333235;
6;13625;2.6132712;1.2737154;
6;13678;1.6424224;-1.025676;
6;13731;5.319438;0.052193593;
6;13785;7.5328774;1.6666038;
6;13838;7.7610445;-0.40797192;
6;13891;5.960604;2.4375367;
6;13943;5.5552664;1.0297463;
6;13995;6.2517395;0.8846575;
6;14048;4.270777;-0.29496574;
6;14102;3.868072;-1.7482462;
6;14155;1.2497733;2.0982785;
6;14208;-0.6358999;-1.1798627;
6;14260;-0.20183125;1.3429077;
6;14313;1.7942146;1.6359581;
6;14365;0.48889598;1.0053256;
6;14417;-1.2856867;-1.9572599;
6;14469;2.2155943;-2.2167914;
6;14521;-6.9623384;-5.2653284;
6;14573;-5.187996;-12.928449;
6;14627;-3.1124618;-12.010034;
6;14679;-1.972822;-10.098024;
6;14732;-10.509588;-7.6501923;
6;14784;-1.2533647;-0.48602295;
6;14835;-6.774873;-2.556768;
6;14888;-5.3637304;-0.20997152;
6;14940;-3.3446999;-2.5457547;
6;14992;-8.652406;-3.3358414;
6;15045;-10.633608;-1.4415487;
6;15098;-9.497798;-1.6390705;
6;15150;-4.891833;-1.2095506;
6;15203;-2.27521;-2.5883715;
6;15254;-7.602788;-1.3721168;
6;15307;-11.264719;-1.202847;
6;15359;-9.430043;-4.947139;
6;15412;-6.528988;-0.41036615;
6;15465;-10.101137;-1.7530344;
6;15517;-2.0061016;-3.011427;
6;15571;0.41323918;6.4214883;
6;15624;1.7532737;3.9226596;
6;15677;-1.4702793;3.4134133;
6;15731;1.1233594;5.2808905;
6;15784;3.2290604;4.0948033;
6;15837;-1.2196062;7.0885134;
6;15889;0.70964134;2.0611682;
6;15941;-0.053630255;5.052005;
6;15994;1.2002133;1.2378023;
6;16047;2.6934772;7.0990477;
6;16100;0.40246534;3.1878796;
6;16153;-2.2596474;2.3312342;
6;16206;2.3896527;1.9958065;
6;16258;4.4886494;2.313517;
6;16310;-0.2667141;1.0014946;
6;16363;2.0446484;0.5087677;
6;16415;4.3567286;3.618836;
6;16468;-3.0415938;1.6962919;
6;16521;3.312378;-0.36655235;
6;16575;-2.2950819;3.0095115;
6;16628;2.3963566;-0.328245;
6;16680;5.4386687;1.0714052;
6;16731;-5.8528657;-5.5849543;
6;16786;0.27030557;-8.523358;
6;16839;-6.3075247;4.7357316;
6;16893;9.171229;-0.6098032;
6;16946;-1.9740193;-10.71525;
6;17000;-7.4383063;-10.866323;
6;17053;0.8908825;-6.1157484;
6;17105;-5.3613358;-7.832631;
6;17155;4.9638987;-6.353493;
6;17206;4.2638335;-0.71419036;
6;17257;-6.390603;-2.1581333;
6;17308;-5.9541407;-0.7546524;
6;17360;-8.72088;-3.1589096;
6;17412;-7.9849024;-3.3356018;
6;17464;-8.909304;-1.700362;
6;17518;-11.702619;-1.4870387;
6;17571;-9.701066;-4.217147;
6;17623;-15.224249;-6.3736043;
6;17676;-7.136397;0.5300764;
6;17728;-10.593385;-0.41012678;
6;17782;-3.4251454;-1.6065094;
6;17834;-2.8048072;-1.3022064;
6;17887;-4.5777135;-0.66606694;
6;17939;1.6682796;-0.53007615;
6;17990;0.291135;-0.94044244;
6;18042;-3.51397;2.973359;
6;18093;-1.8109741;2.1042638;
6;18144;-1.2162545;1.3769052;
6;18197;2.2852654;3.1648953;
6;18250;-1.7357963;-0.48626232;
6;18303;-1.700362;-0.28227624;
6;18356;0.61698574;-0.61052144;
6;18410;-2.6190171;-0.50373995;
6;18462;-1.7614142;-0.09744401;
6;18515;0.2442086;-0.004309559;
6;18567;0.8916008;0.5767633;
6;18619;-0.61100024;-1.6534357;
6;18672;-0.5688624;-0.2451663;
6;18724;-1.622311;0.62201357;
6;18777;3.0126243;-0.058897354;
6;18831;0.8240843;2.9412768;
6;18883;2.1638794;0.32369605;
6;18937;-0.104866125;2.1820755;
6;18989;3.1780636;3.4605794;
6;19040;0.5228936;0.36559457;
6;19092;5.092706;-0.5104438;
6;19143;-2.0209458;-1.4879963;
6;19195;2.9051244;1.1856086;
6;19247;0.13623008;-0.13838477;
6;19299;-0.57700264;-1.3812149;
6;19352;-2.1660342;-2.2661119;
6;19405;2.6475081;-0.5154716;
6;19457;2.357331;-1.0261549;
6;19509;5.318001;-0.14484921;
6;19560;2.421496;-2.2907722;
6;19611;-0.06727705;-1.6615759;
6;19662;2.4952369;0.23606832;
6;19714;-1.3481749;-0.58250934;
6;19766;2.4217353;-0.48889598;
6;19818;4.4345407;-1.2294226;
6;19869;3.1165326;0.27485436;
6;19921;-1.6706741;0.64140666;
6;19972;-0.47931919;0.995509;
6;20024;0.3758897;2.4461558;
6;20076;0.48913535;4.2207384;
6;20127;-2.273534;-0.5216965;
6;20178;-0.25905284;4.425203;
6;20219;0.49599877;3.6615324;
6;20229;1.7322049;0.7433996;
