Round;Timestamp;AccX;AccY;
9;11;-0.2861071;1.8375498;
9;31;0.22840682;-1.0517727;
9;82;1.3927071;-2.771049;
9;134;1.5040375;3.2218773;
9;186;-0.23976535;0.6471134;
9;237;-1.0440378;1.6085719;
9;288;-2.0094028;1.5345963;
9;338;-3.2250588;1.3490446;
9;391;-2.9308078;1.260653;
9;443;-3.172938;1.531575;
9;497;-4.1546817;2.0194232;
9;553;-4.5626283;0.6411798;
9;603;-5.0794234;-0.7317529;
9;656;-6.1844816;-2.5352852;
9;708;-8.380655;-4.153;
9;760;-9.979384;-4.0227594;
9;811;-10.379598;-4.085689;
9;862;-10.311611;-3.1667318;
9;915;-10.044111;-1.641508;
9;967;-9.196596;-1.3868864;
9;1017;-8.441499;-0.40871513;
9;1071;-7.601806;0.19468501;
9;1121;-6.8478074;1.7219003;
9;1172;-5.769037;2.8644874;
9;1223;-4.3682294;3.5910373;
9;1274;-2.482929;3.4069355;
9;1328;-0.980323;3.4947147;
9;1382;-0.9239617;2.9209695;
9;1437;-1.7257934;2.5589914;
9;1491;-1.6557966;2.3846893;
9;1542;-1.5804664;2.526962;
9;1595;-2.1677742;2.0090668;
9;1646;-1.8448527;2.0169604;
9;1697;-1.8090953;1.8686588;
9;1751;-1.2811435;2.2399364;
9;1803;-1.7114139;1.8554515;
9;1854;-1.5608255;1.0607382;
9;1908;-1.1833117;1.5659127;
9;1959;-1.0028045;0.42724377;
9;2009;0.04631287;-0.92377734;
9;2062;2.5217707;-2.2982502;
9;2114;4.4360356;-2.758425;
9;2164;7.6822696;-2.4448977;
9;2214;8.663049;-2.395147;
9;2267;9.939678;-2.110862;
9;2319;10.403097;-1.006059;
9;2372;9.650299;-0.8987876;
9;2424;11.051972;-1.7220986;
9;2474;11.1424055;-2.216952;
9;2526;10.892345;-2.0443633;
9;2578;11.926308;-1.4945891;
9;2630;10.538313;-0.5251097;
9;2682;9.217169;1.4392788;
9;2733;7.343546;3.3917978;
9;2783;5.7048407;5.1472316;
9;2834;5.633789;5.4492736;
9;2886;3.6737735;6.2139864;
9;2939;2.900839;5.8624206;
9;2991;2.7040167;5.165828;
9;3043;1.5189977;4.720223;
9;3093;-0.27142575;4.652275;
9;3143;-1.5285351;4.2221017;
9;3197;-2.2284286;3.6425128;
9;3250;-2.0805893;3.7260792;
9;3301;-2.8820994;3.0469737;
9;3351;-2.6795292;2.5074384;
9;3402;-2.3603427;2.302132;
9;3452;-1.7233773;2.4949095;
9;3505;-2.7314057;1.9463097;
9;3557;-2.7923088;1.3379672;
9;3609;-4.354928;1.2900902;
9;3661;-5.111766;1.4333298;
9;3712;-5.807627;0.14969663;
9;3765;-4.257397;-0.42915392;
9;3817;-0.69940084;-0.89442503;
9;3870;4.0359144;-1.2328501;
9;3921;6.767118;-1.9640579;
9;3972;9.303176;-2.5734425;
9;4023;10.09265;-2.46513;
9;4077;10.618047;-2.1917696;
9;4128;10.398388;-2.1804998;
9;4179;10.096859;-2.3866603;
9;4232;11.058792;-2.3797464;
9;4284;11.206239;-1.549659;
9;4338;10.526585;-0.66166306;
9;4392;9.502931;0.40526995;
9;4444;8.5688505;1.5953736;
9;4496;8.094494;3.9667683;
9;4551;7.2499924;4.962625;
9;4604;5.8673935;5.2223697;
9;4655;3.9490688;5.002071;
9;4710;1.2008849;5.207612;
9;4763;-0.36669216;4.770408;
9;4817;-1.9542575;4.5654993;
9;4867;-2.5740309;2.8625627;
9;4919;-1.8593961;2.9026182;
9;4970;-2.1128676;0.29324597;
9;5023;-2.8677788;-1.3501568;
9;5075;-4.74201;-2.6886678;
9;5126;-6.7565517;-3.2177045;
9;5177;-7.8016005;-3.3877249;
9;5231;-8.848314;-2.2554767;
9;5286;-9.172959;-1.5794654;
9;5339;-8.360192;-1.0640433;
9;5389;-9.490027;-2.0945525;
9;5441;-8.761315;-1.3433223;
9;5494;-8.881199;-0.22575124;
9;5544;-8.016363;1.2095166;
9;5597;-6.883678;2.536863;
9;5650;-5.0683317;4.6219783;
9;5701;-3.0702727;6.188898;
9;5752;-1.1492614;5.6052184;
9;5803;-0.8535091;4.6589346;
9;5855;-0.2632327;4.104512;
9;5907;-1.033239;3.9022462;
9;5959;-1.6229826;3.201838;
9;6012;-2.2111843;2.976649;
9;6063;-2.289462;2.4533417;
9;6114;-1.6468791;3.0940404;
9;6167;-1.2283688;3.0225148;
9;6220;-0.90086466;3.232383;
9;6271;-1.5513284;3.4836287;
9;6321;-3.1521552;2.862974;
9;6372;-4.2200875;1.5031358;
9;6423;-5.9072886;0.7968432;
9;6474;-8.267675;-0.8107513;
9;6524;-9.077796;-0.8652686;
9;6578;-8.823591;-1.591826;
9;6629;-8.036187;-1.1024864;
9;6680;-8.049843;-0.7683209;
9;6732;-8.29694;-1.0850034;
9;6783;-6.956125;-1.2901119;
9;6835;-7.2604795;-1.3749672;
9;6886;-8.154977;-0.8381043;
9;6936;-7.3703313;0.6783436;
9;6986;-6.26962;2.0406299;
9;7036;-4.8890314;3.3350224;
9;7087;-3.9205892;3.7783978;
9;7139;-3.3908176;3.6084776;
9;7192;-2.0978699;3.1317658;
9;7246;-1.9309983;2.3054776;
9;7297;-1.8196471;1.8595866;
9;7347;-1.6106156;2.524808;
9;7398;-1.8447685;3.2682302;
9;7449;-1.5252526;2.7737937;
9;7500;-1.3740658;2.9380834;
9;7552;-2.1610618;2.0498626;
9;7603;-3.133667;1.5978549;
9;7653;-3.7579837;0.10901693;
9;7705;-4.1269307;-1.260566;
9;7755;-4.0295863;-1.514504;
9;7807;-6.354876;-1.9992954;
9;7857;-6.0834928;-3.5972354;
9;7909;-5.7186203;-3.070796;
9;7961;-6.7581444;-2.730012;
9;8013;-7.8929634;-1.5881215;
9;8064;-5.941898;-1.9154226;
9;8114;-7.9466653;-2.1302218;
9;8166;-8.827772;-2.210159;
9;8217;-11.340886;-1.9133962;
9;8267;-10.738482;-1.8956574;
9;8318;-11.110846;-1.7331294;
9;8370;-11.714279;-1.7906616;
9;8421;-10.606628;-0.2658328;
9;8472;-8.090529;0.66340554;
9;8525;-9.196132;2.3151174;
9;8580;-6.5023155;3.7540202;
9;8633;-3.1990962;5.977402;
9;8685;-1.3208416;7.7498455;
9;8736;0.070061006;8.082189;
9;8790;0.7640365;6.7089095;
9;8844;1.8391658;6.983236;
9;8897;1.3904561;5.65737;
9;8948;0.8066035;5.0483317;
9;8998;0.19838919;3.173476;
9;9050;-0.34822473;2.6449585;
9;9101;-2.7930303;1.8764925;
9;9151;-4.102252;2.0749924;
9;9201;-5.6580615;1.1702147;
9;9251;-5.7515297;2.783873;
9;9303;-5.7890983;2.0325975;
9;9354;-4.866967;2.2398016;
9;9405;-3.4528198;2.7748551;
9;9457;-0.9280855;2.3662374;
9;9511;0.13417582;1.9744304;
9;9566;2.114875;1.8267014;
9;9617;3.086272;0.815037;
9;9670;4.686348;0.97017604;
9;9724;5.4271164;0.18658388;
9;9774;6.8336997;-0.22831781;
9;9824;9.463007;0.65997154;
9;9878;11.704043;-0.91025895;
9;9930;12.408611;-0.811709;
9;9984;13.017216;-0.9777423;
9;10035;12.569002;-1.885322;
9;10088;12.773461;-1.9463097;
9;10141;12.532538;-1.7394972;
9;10191;13.018609;-1.3327858;
9;10242;12.313157;-0.7756062;
9;10293;12.488644;-1.6644934;
9;10346;10.637502;-2.9088264;
9;10399;9.203704;-3.7191536;
9;10450;7.812804;-5.003985;
9;10500;7.1107388;-4.206515;
9;10552;7.2001405;-3.9085073;
9;10603;6.8979316;-2.572038;
9;10654;6.196509;-1.7159544;
9;10707;7.651455;-0.7749866;
9;10758;6.9637637;-1.2800802;
9;10808;7.3238473;-1.5293063;
9;10860;8.002195;-1.5225973;
9;10912;8.684529;-0.8861003;
9;10964;8.638906;-0.9886892;
9;11017;8.520168;-0.33501107;
9;11068;8.485059;0.8711878;
9;11121;9.3158;2.4956582;
9;11174;7.4889174;2.6348794;
9;11226;6.3289833;3.0547216;
9;11279;5.1798477;3.8822105;
9;11331;3.1434124;3.039378;
9;11383;0.960993;2.087286;
9;11436;-0.76756966;1.9350642;
9;11488;-2.77858;1.9260657;
9;11541;-2.932379;1.8747084;
9;11595;-5.22124;1.5126599;
9;11649;-4.7396383;1.6255822;
9;11702;-5.2012095;2.1970842;
9;11754;-6.465689;1.5554869;
9;11805;-6.5710335;1.2019421;
9;11858;-7.3568716;1.5949593;
9;11911;-7.5244026;1.3734571;
9;11963;-7.201639;1.3751942;
9;12016;-7.4320593;1.0686525;
9;12069;-7.3945127;0.15328494;
9;12121;-7.8401055;-0.73117054;
9;12174;-9.0093975;-1.4575112;
9;12225;-8.7898035;-2.005715;
9;12278;-9.324573;-1.58517;
9;12329;-8.738422;-0.55624366;
9;12382;-8.934879;-3.6677089;
9;12434;-8.230189;-4.84501;
9;12486;-9.104336;-4.7879295;
9;12538;-8.527271;-3.3133247;
9;12589;-7.023485;-0.06756519;
9;12640;-3.1830313;1.1702417;
9;12691;-0.39828342;0.5829946;
9;12742;2.2603378;0.7216157;
9;12792;2.7998996;-1.6882147;
9;12845;3.1054735;-2.4105942;
9;12896;1.432938;-2.4729848;
9;12948;0.10661765;-1.5508565;
9;12999;-0.28563243;-0.04229681;
9;13052;0.1133639;-0.7997642;
9;13105;0.20005263;-2.3872855;
9;13157;0.26675037;-1.8379745;
9;13210;-0.0519552;-0.46118125;
9;13262;0.37412876;-0.8553839;
9;13313;0.2751259;-0.73803794;
9;13364;0.35929918;-0.6352532;
9;13416;0.41872516;-0.5240296;
9;13466;0.6718751;-0.4570469;
9;13520;0.80489326;-0.4117042;
9;13572;0.47486258;-0.59147036;
9;13625;0.34951723;-0.71665394;
9;13677;0.6582293;-0.96720153;
9;13728;0.49947917;-0.9465233;
9;13780;0.2155424;-0.98306656;
9;13832;0.4532949;-0.7892222;
9;13885;0.73108447;-0.81074715;
9;13937;0.45211336;-0.79104203;
9;13990;0.32936645;-0.7299464;
9;14042;0.40249428;-0.76161826;
9;14093;0.42699802;-0.7191674;
9;14145;0.49177942;-0.78917134;
9;14198;0.44913977;-0.92540145;
9;14251;0.7045223;-0.8017394;
9;14303;0.7255488;-0.98089;
9;14354;0.53995776;-0.9293235;
9;14406;0.6748622;-0.7580146;
9;14459;0.57033926;-0.62664753;
9;14511;0.48081788;-0.55752456;
9;14564;0.6017655;-0.6432898;
9;14616;0.5536409;-0.7661953;
9;14669;0.491456;-0.88141555;
9;14722;0.38817158;-0.9803426;
9;14775;0.34228274;-0.9490584;
9;14827;0.40786102;-0.90232384;
9;14879;0.36511058;-0.48111537;
9;14929;0.311383;0.17679153;
9;14982;0.41919985;1.1877676;
9;15033;0.6139376;2.1249855;
9;15085;0.2592869;2.8792286;
9;15139;0.29287833;3.5782852;
9;15193;0.7480813;4.2564898;
9;15245;1.4605502;4.421393;
9;15297;1.8474883;4.682696;
9;15349;1.6945724;4.7318788;
9;15400;1.4866593;4.8934426;
9;15450;0.55853295;4.4887633;
9;15502;-0.8979438;3.75845;
9;15555;-0.9430562;3.273438;
9;15605;-0.7841103;3.2093403;
9;15656;0.3628553;2.7096407;
9;15710;1.0608666;2.607556;
9;15762;1.830021;2.7155979;
9;15814;1.6237173;2.8609858;
9;15866;1.3150023;2.4254403;
9;15917;0.63160473;1.6043992;
9;15969;0.3856767;1.6737347;
9;16019;-0.17561938;1.437942;
9;16072;-0.065768;1.3531553;
9;16126;-0.6464604;1.414543;
9;16180;-0.42027873;1.5413942;
9;16232;-0.36966577;2.0209963;
9;16284;0.05091052;2.066545;
9;16338;-0.69158643;1.7358024;
9;16391;-1.3379682;1.5191219;
9;16441;-1.5678601;1.0691353;
9;16494;-0.774114;1.3528608;
9;16546;-0.91713905;1.5420079;
9;16599;-0.07677211;1.6336436;
9;16652;0.79322493;1.9601359;
9;16705;0.58113086;2.4035497;
9;16758;-0.018681997;1.5020704;
9;16811;-0.34425202;1.3592027;
9;16865;-0.6939619;0.92804635;
9;16918;-0.37589386;1.0668242;
9;16971;-0.33043092;0.9326856;
9;17024;-0.34302378;1.6775249;
9;17076;-0.6837363;0.6121467;
9;17128;0.16589639;1.3087245;
9;17181;0.9171047;0.26761153;
9;17233;1.5987339;0.94430524;
9;17287;1.5776857;0.52668583;
9;17339;1.5040604;0.9377663;
9;17389;1.2061895;0.82084525;
9;17440;0.37562123;1.6349362;
9;17490;-0.78981197;0.07993003;
9;17542;0.36616662;1.2421418;
9;17595;0.18458878;0.50537664;
9;17647;0.13786764;0.9586839;
9;17701;0.50231177;0.5278945;
9;17753;0.35990766;0.6709776;
9;17804;-0.7464312;-0.048494447;
9;17856;-1.8586082;-0.41208357;
9;17909;-3.9093852;-0.9289387;
9;17961;-4.7130275;-1.2844748;
9;18014;-6.113439;-2.5553324;
9;18067;-8.06512;-3.127405;
9;18120;-8.635051;-3.5291197;
9;18172;-9.124655;-3.2458205;
9;18224;-10.369397;-3.152736;
9;18277;-9.933238;-2.8726616;
9;18329;-9.250084;-2.490259;
9;18381;-8.644543;-2.4808946;
9;18431;-9.007028;-1.6215825;
9;18484;-8.802825;-0.112910114;
9;18536;-9.14527;2.033378;
9;18590;-8.265496;3.3272612;
9;18643;-6.6957808;4.04331;
9;18695;-3.185493;2.8986654;
9;18748;0.03162219;2.1833503;
9;18801;2.0014448;0.56520164;
9;18854;2.830084;0.5108698;
9;18906;3.9301682;1.3982884;
9;18958;2.4465952;1.8761036;
9;19010;0.332676;0.71107787;
9;19062;-0.20142385;1.1628201;
9;19115;-0.9268609;0.051586267;
9;19168;-1.7205802;0.035394885;
9;19219;-1.0971196;-0.9054663;
9;19271;-1.1324584;0.054919437;
9;19324;-0.09065829;0.96097964;
9;19376;0.043363035;0.27945718;
9;19429;0.95620066;0.575934;
9;19481;3.231346;1.859595;
9;19535;4.2941265;1.0721214;
9;19588;5.067544;1.3557296;
9;19641;6.6662326;1.7035044;
9;19693;3.985704;1.124884;
9;19745;1.9196938;0.76072913;
9;19798;-0.42809042;-0.47066158;
9;19853;-0.051312532;0.83145857;
9;19905;-1.3664342;-0.18197387;
9;19959;-0.5964887;-0.82206225;
9;20012;0.37522;-1.0624452;
9;20065;1.8616834;0.08759245;
9;20118;1.265434;-0.7482263;
9;20171;0.8762985;-1.208308;
9;20223;-1.1582394;-3.1568594;
9;20275;-1.3133485;-2.861069;
9;20328;-7.3542547;-3.5719073;
9;20380;-8.193835;-3.006728;
9;20433;-8.815717;-2.8123422;
9;20484;-6.9881015;-0.61748964;
9;20536;-7.802008;-1.0019993;
9;20586;-8.7878065;-0.98769104;
9;20636;-9.8777275;-2.1908314;
9;20688;-8.418339;-1.8974048;
9;20740;-11.728164;-1.8505739;
9;20792;-9.814327;-1.3376924;
9;20844;-7.9618506;-0.15401554;
9;20898;-6.2827764;1.2759944;
9;20952;-7.0817375;1.2683557;
9;21003;-6.0023694;3.160996;
9;21055;-4.3214216;2.9619756;
9;21106;-2.2084064;2.4076297;
9;21156;-0.5347268;1.5800809;
9;21208;0.57993364;1.3588318;
9;21260;0.43351313;0.33917332;
9;21312;-0.4780091;-0.9291823;
9;21363;-0.33425963;-1.5317688;
9;21413;-0.23778152;-1.0713431;
9;21464;-0.12350349;-1.6495677;
9;21516;0.19824515;-1.3418889;
9;21569;0.9483288;-1.0730283;
9;21621;0.65937144;-0.5908734;
9;21673;-0.056611966;-1.7509303;
9;21725;-0.05466863;-1.4674165;
9;21779;0.011263133;-0.8304293;
9;21833;-0.08912857;-0.9398515;
9;21886;-0.26559055;-0.9513594;
9;21939;-0.5962059;-0.4654442;
9;21992;-1.9026626;-1.3326168;
9;22045;-2.3313792;-1.5487905;
9;22099;-3.1315846;-1.7148879;
9;22151;-2.8014078;-1.1975391;
9;22203;-2.01467;-1.1920128;
9;22253;-0.37452045;-0.71942437;
9;22303;0.84390116;-0.47651765;
9;22355;1.1581707;-0.5349206;
9;22406;0.6950637;-1.5267006;
9;22459;0.73955446;-1.5424991;
9;22511;0.3883344;-1.4175268;
9;22563;0.60367364;-1.5178856;
9;22614;1.226876;-1.4517941;
9;22668;1.9810278;-1.001196;
9;22721;2.6384685;-0.6450114;
9;22773;2.7251952;-1.1127918;
9;22825;2.189774;-0.980518;
9;22878;1.2558157;-0.91111904;
9;22929;0.70168984;-1.513546;
9;22979;0.4199357;-1.4113572;
9;23030;-0.054209787;-1.8167303;
9;23084;-0.59915;-1.6220349;
9;23138;0.10342951;0.5475539;
9;23190;-0.929908;-2.276407;
9;23236;0.16071075;1.9773113;
9;23252;2.955642;-0.50757074;
