Round;Timestamp;AccX;AccY;AccZ;Acc Vector a;;;
0;03:36:10:620;0.001756154;-0.001772888;-0.00582695;0.006338813;X;7.1852646;-14.127753
0;03:36:10:630;0.001756154;-0.001772888;-0.00582695;0.006338813;Y;6.299112;-7.060702
0;03:36:10:640;0.001756154;-0.001772888;-0.00582695;0.006338813;Z;1.4664516;-1.9397535
0;03:36:10:650;-0.006256521;-0.016741201;-0.027646065;0.032919853;;;
0;03:36:10:660;-0.012666665;-0.005731516;-0.02977848;0.032864153;;;
0;03:36:10:670;0.00518956;-0.004585214;0.02980709;0.030600954;;;
0;03:36:10:680;-0.003509797;0.003993273;0.13876724;0.138869051;;;
0;03:36:10:691;0.004853606;0.01851751;0.011415482;0.022288312;;;
0;03:36:10:700;0.011544332;-5.09E-04;-0.067481995;0.068464226;;;
0;03:36:10:710;0.016896918;-0.00806855;-0.031001091;0.036217053;;;
0;03:36:10:721;-0.001805358;0.001206607;0.013506889;0.013680325;;;
0;03:36:10:731;-0.016767181;-0.006696161;0.003144264;0.018326574;;;
0;03:36:10:741;0.001909152;-0.00535693;-0.028130531;0.028699623;;;
0;03:36:10:751;-0.01379557;0.011037348;0.008141518;0.019453152;;;
0;03:36:10:761;-0.018697903;0.016491324;0.014174461;0.028679098;;;
0;03:36:10:771;0.008026019;0.01319306;0.003678322;0.01587463;;;
0;03:36:10:781;0.006420814;0.010554448;-0.027703285;0.030333072;;;
0;03:36:10:791;0.020459548;-0.006879333;0.008482933;0.023192207;;;
0;03:36:10:802;0.001044743;0.002157979;-8.75E-04;0.002552413;;;
1;03:36:10:811;8.36E-04;-0.005935062;0.006960869;0.009185707;;;
1;03:36:10:822;0.003492512;-0.015297063;-0.020646095;0.025931815;;;
1;03:36:10:833;0.003492512;-0.015297063;-0.020646095;0.025931815;;;
1;03:36:10:842;0.006832078;-0.002128672;-0.007084847;0.010069934;;;
1;03:36:10:852;0.003498025;-0.002928626;0.013533592;0.014281847;;;
1;03:36:10:863;0.003498025;-0.002928626;0.013533592;0.014281847;;;
1;03:36:10:873;0.003498025;-0.002928626;0.013533592;0.014281847;;;
1;03:36:10:883;0.003498025;-0.002928626;0.013533592;0.014281847;;;
1;03:36:10:894;-0.006228648;0.003703758;-0.010209084;0.012519555;;;
1;03:36:10:904;0.002678528;0.0182859;0.014817238;0.023687532;;;
1;03:36:10:914;0.002678528;0.0182859;0.014817238;0.023687532;;;
1;03:36:10:925;0.002678528;0.0182859;0.014817238;0.023687532;;;
1;03:36:10:934;0.002678528;0.0182859;0.014817238;0.023687532;;;
1;03:36:10:944;-0.005518623;-6.94E-04;-0.003469467;0.006555477;;;
1;03:36:10:954;-0.004414901;-5.55E-04;-0.010437012;0.011345967;;;
1;03:36:10:964;0.004129522;-4.44E-04;-6.89E-04;0.004210039;;;
1;03:36:10:975;0.003303617;-3.55E-04;0.007110596;0.007848616;;;
1;03:36:10:985;0.002642892;0.007377112;0.013350487;0.01548038;;;
1;03:36:10:995;0.002114318;0.005901689;0.003019333;0.006958207;;;
2;03:36:11:005;0.001691453;-0.010601539;-0.028229713;0.030202159;;;
2;03:36:11:015;0.001353167;-0.008481231;0.015723228;0.017915977;;;
2;03:36:11:025;0.001082532;0.008537905;0.004917145;0.009911913;;;
2;03:36:11:036;-0.006795421;-0.008492567;-0.003727913;0.011497773;;;
2;03:36:11:045;-0.013097785;-0.014455501;0.012340546;0.023082516;;;
2;03:36:11:056;0.004844666;0.011419939;-0.005450249;0.013549576;;;
2;03:36:11:066;0.010762036;-0.006481838;-0.008085251;0.014940111;;;
2;03:36:11:076;0.010762036;-0.006481838;-0.008085251;0.014940111;;;
2;03:36:11:086;7.59E-04;0.001980782;0.016277313;0.016414926;;;
2;03:36:11:096;6.07E-04;-0.00607682;-0.002301216;0.006526224;;;
2;03:36:11:106;-0.014837422;0.010461437;0.005820274;0.019064793;;;
2;03:36:11:116;-0.00420849;0.00836915;-0.010666847;0.014196327;;;
2;03:36:11:127;-0.003366791;-0.016289018;-8.73E-04;0.016656195;;;
2;03:36:11:138;-0.002693437;0.002291679;0.00696373;0.007810245;;;
2;03:36:11:147;0.005506694;0.001833342;0.005571365;0.008045181;;;
2;03:36:11:158;0.004405357;-0.00619477;-0.010866165;0.013261067;;;
2;03:36:11:168;0.003524289;0.010367075;0.006629944;0.012800508;;;
2;03:36:11:178;0.002819434;0.00829366;-0.010019302;0.01330866;;;
2;03:36:11:188;0.002255552;-0.008687962;-3.54E-04;0.008982949;;;
3;03:36:11:198;0.001804441;7.11E-04;-2.83E-04;0.001960067;;;
3;03:36:11:209;0.001443557;0.015891753;-0.00788784;0.017800273;;;
3;03:36:11:218;0.001154847;-0.002609488;0.009012222;0.009453214;;;
3;03:36:11:228;-0.006737568;0.005573856;-4.52E-04;0.008755971;;;
3;03:36:11:238;0.002271392;0.01212053;-0.008023262;0.014711872;;;
3;03:36:11:248;0.04012434;0.03268076;0.001242638;0.051764263;;;
3;03:36:11:258;0.6296922;0.5701072;-0.006667137;0.849458036;;;
3;03:36:11:268;0.94045615;1.3294907;-0.03597927;1.628894687;;;
3;03:36:11:279;1.1047914;0.85673344;0.078476906;1.400255269;;;
3;03:36:11:289;0.19430304;0.45554346;-0.090447426;0.503442388;;;
3;03:36:11:299;-0.44215032;0.70919985;-0.011066437;0.835813281;;;
3;03:36:11:310;-0.4073504;1.1726141;-0.016514778;1.241463216;;;
3;03:36:11:319;-0.37184894;1.2981791;0.01743412;1.350497935;;;
3;03:36:11:330;-0.7175898;1.3395545;-0.16045856;1.528099634;;;
3;03:36:11:340;-0.48979598;1.2708411;0.30067348;1.394755113;;;
3;03:36:11:350;-0.22328497;1.3001466;0.30183125;1.353269921;;;
3;03:36:11:360;-0.002414743;1.369559;0.13420391;1.376120847;;;
3;03:36:11:370;-0.086207695;1.4097664;0.10736275;1.416474451;;;
3;03:36:11:381;-0.52099144;1.4189482;-0.38911915;1.56085225;;;
3;03:36:11:390;-0.8075268;1.1121745;-0.089113235;1.377306348;;;
4;03:36:11:400;-0.6843288;0.6598964;-0.117259026;0.957872014;;;
4;03:36:11:410;-0.14906782;0.083553314;-0.26235867;0.313104522;;;
4;03:36:11:420;-0.03497833;-0.27792263;-0.010689735;0.280318997;;;
4;03:36:11:431;0.2554908;-0.55178;-0.10048962;0.61630744;;;
4;03:36:11:441;0.7023866;-0.96240234;0.072836876;1.193679342;;;
4;03:36:11:451;0.88369;-1.1376715;-0.071974754;1.442353886;;;
4;03:36:11:461;0.9138111;-1.1782877;-0.02693367;1.491354505;;;
4;03:36:11:471;0.9302465;-1.4099783;0.093375206;1.691779045;;;
4;03:36:11:482;0.71355134;-1.5723463;0.5497103;1.812073361;;;
4;03:36:11:492;-0.08804318;-2.0240216;-0.24210072;2.040349912;;;
4;03:36:11:502;-0.4611683;-2.7224655;-0.3009405;2.777599639;;;
4;03:36:11:512;-0.69837683;-3.235252;0.22659588;3.317518787;;;
4;03:36:11:522;-1.0566955;-2.8946593;0.31918335;3.097988885;;;
4;03:36:11:532;-1.0062467;-2.4996023;0.07147217;2.695487373;;;
4;03:36:11:542;-0.49853957;-2.2371864;0.35597515;2.319539465;;;
4;03:36:11:552;-0.084712386;-2.5099254;0.024290085;2.511472034;;;
4;03:36:11:562;0.03182888;-2.1381848;-0.13379669;2.142603273;;;
4;03:36:11:572;0.09441614;-1.2585225;0.023207664;1.26227248;;;
4;03:36:11:582;0.1444859;-1.0681095;-0.004418373;1.077846768;;;
5;03:36:11:592;0.23051041;-1.0383625;-0.21805477;1.085762229;;;
5;03:36:11:602;0.29933003;-0.89964294;-0.12081432;0.955799135;;;
5;03:36:11:612;0.69915074;-0.75036;0.25577545;1.05701134;;;
5;03:36:11:622;1.3331265;-0.6998868;-0.10183811;1.509118577;;;
5;03:36:11:633;1.0554632;-0.49083185;0.15547371;1.17434686;;;
5;03:36:11:643;0.03225732;-0.116853714;-0.0901413;0.151065477;;;
5;03:36:11:653;-1.0391351;0.28192806;0.058131218;1.078269175;;;
5;03:36:11:663;-1.6587442;0.922734;0.06948948;1.899394418;;;
5;03:36:11:673;-1.3653027;1.1825509;-0.021022797;1.806355486;;;
5;03:36:11:684;-0.57892525;1.2524986;-0.10875511;1.38410075;;;
5;03:36:11:693;-0.06474504;1.4310398;-0.08700371;1.435143322;;;
5;03:36:11:704;0.17038588;1.9875908;-0.084926605;1.99668753;;;
5;03:36:11:714;0.2512304;1.8812076;-0.052618027;1.898638303;;;
5;03:36:11:724;0.2163072;1.5126276;-0.065078735;1.529400623;;;
5;03:36:11:735;0.15772286;1.2330866;-0.036740303;1.24367554;;;
5;03:36:11:746;0.1108554;0.99413073;-0.037054062;1.000978468;;;
5;03:36:11:756;0.096345775;0.7953046;-0.014320374;0.801247177;;;
5;03:36:11:767;0.06941517;0.6362437;-0.04210186;0.641402424;;;
5;03:36:11:778;0.055532135;0.493672;-0.01835823;0.49712463;;;
6;03:36:11:787;0.059748605;0.38727617;-0.022348404;0.392494838;;;
6;03:36:11:798;-6.81E-05;0.23100162;-0.012770653;0.231354362;;;
6;03:36:11:809;-6.81E-05;0.23100162;-0.012770653;0.231354362;;;
6;03:36:11:820;0.03673134;0.22139093;-0.008173943;0.22456614;;;
6;03:36:11:830;0.067692295;0.16945131;0.01644516;0.183211456;;;
6;03:36:11:841;0.023508057;0.12023816;0.005495071;0.122637845;;;
6;03:36:11:851;0.003483556;0.073206194;-0.003265381;0.073361738;;;
6;03:36:11:862;0.002786845;0.050903514;-0.010273933;0.052004693;;;
6;03:36:11:872;-0.005431972;0.048384257;-0.015880585;0.051212652;;;
6;03:36:11:882;-0.004345581;0.038707405;0.010279655;0.040284223;;;
6;03:36:11:892;0.011846431;0.030965924;-0.014760971;0.036292046;;;
6;03:36:11:903;0.001815699;0.017111294;-0.00414753;0.017700145;;;
6;03:36:11:913;0.009114005;0.029011926;-0.003317833;0.030590275;;;
6;03:36:11:923;0.007291205;0.023209544;0.00500679;0.024837724;;;
6;03:36:11:934;-0.001828484;0.01090619;0.004005432;0.011761455;;;
6;03:36:11:944;0.013860107;0.016386399;-0.004457474;0.021919983;;;
6;03:36:11:954;0.011088088;0.020770565;-0.003565788;0.023813377;;;
6;03:36:11:965;-0.005161934;0.001034848;0.005379677;0.007527111;;;
6;03:36:11:975;-0.004129544;0.016150773;-0.003357887;0.017005175;;;
7;03:36:11:986;-0.004129544;0.016150773;-0.003357887;0.017005175;;;
7;03:36:11:996;-0.002642907;0.002675051;0.019303322;0.019666191;;;
7;03:36:12:006;0.005547121;-0.005521406;1.20E-04;0.007827574;;;
7;03:36:12:017;0.004437693;-0.012078568;9.63E-05;0.012868342;;;
7;03:36:12:027;0.00355015;0.005660037;-0.007584572;0.010107685;;;
7;03:36:12:038;-0.00482133;-0.003133416;-0.00606823;0.008359841;;;
7;03:36:12:047;-0.011518508;-0.010168176;0.010468483;0.018591852;;;
7;03:36:12:057;-0.001553364;-4.73E-04;-0.006948471;0.007135686;;;
7;03:36:12:067;-0.00124269;-3.78E-04;0.002102852;0.002471742;;;
7;03:36:12:077;-9.94E-04;0.01502011;0.001682282;0.015146686;;;
7;03:36:12:087;-7.95E-04;-0.003306802;-0.013977051;0.014384903;;;
7;03:36:12:097;-6.36E-04;-0.00264544;-0.011181831;0.011508108;;;
7;03:36:12:107;-5.09E-04;-0.009777796;0.00637722;0.011684747;;;
7;03:36:12:117;0.00725425;-0.007822238;0.005102158;0.011825547;;;
7;03:36:12:127;-0.001858048;-0.006257791;-0.003580093;0.00744509;;;
7;03:36:12:137;-0.001486436;0.002655208;-0.002863884;0.00417869;;;
7;03:36:12:148;-0.008850597;0.002124168;-0.002291679;0.009385997;;;
7;03:36:12:158;-0.007080481;0.001699336;0.013489723;0.0153295;;;
7;03:36:12:168;0.009658508;0.00135947;-0.012192726;0.015614016;;;
7;03:36:12:178;6.54E-05;0.008749025;-0.009754181;0.013103196;;;
7;03:36:12:188;0.007713735;-6.62E-04;0.007519722;0.01079289;;;
7;03:36:12:198;0.012598239;0.007237623;-0.010510445;0.017932324;;;
7;03:36:12:208;0.002417147;0.005790098;-7.47E-04;0.006318657;;;
7;03:36:12:218;0.001933716;0.00463208;-0.00825882;0.00966455;;;
7;03:36:12:228;0.001546972;-0.003955782;0.00105381;0.004376282;;;
7;03:36:12:238;0.001237579;0.019819712;0.008504868;0.021602902;;;
7;03:36:12:248;-0.006671384;5.33E-04;-8.57E-04;0.006747324;;;
7;03:36:12:259;-0.005337104;-0.007235143;-6.86E-04;0.009016771;;;
7;03:36:12:270;-0.004269682;-0.005788114;-5.48E-04;0.0072134;;;
7;03:36:12:280;-0.003415741;-0.004630491;0.007223129;0.009234843;;;
7;03:36:12:290;-0.010394037;-0.011365838;0.013440132;0.020441513;;;
7;03:36:12:300;0.007007666;0.006230218;0.003090859;0.009873014;;;
7;03:36:12:310;0.00560613;-0.002677269;-0.005188942;0.00809454;;;
7;03:36:12:320;0.004484899;0.013181075;-0.004151344;0.014528893;;;
7;03:36:12:331;-0.00407353;0.002883414;-0.018644333;0.019300748;;;
7;03:36:12:341;0.004402623;0.009968177;-0.014915466;0.018472108;;;
7;03:36:12:351;-0.004139349;3.13E-04;0.003390312;0.005359707;;;
7;03:36:12:361;-0.003311478;-0.00741097;-0.00494957;0.009507187;;;
7;03:36:12:372;-0.002649181;-0.01359022;0.01136303;0.017911747;;;
7;03:36:12:381;-0.00211934;-0.010872178;0.016752243;0.020083165;;;
7;03:36:12:392;-0.001695469;-0.001036298;0.005740166;0.006074375;;;
7;03:36:12:402;-0.001356371;0.006832408;-0.010730743;0.012793373;;;
7;03:36:12:413;-0.001085095;-0.009856962;0.006738663;0.011989441;;;
7;03:36:12:424;-8.68E-04;0.00743732;-0.009931564;0.012437976;;;
7;03:36:12:434;-0.006684728;0.006292174;-2.28E-04;0.009183082;;;
7;03:36:12:445;0.002313666;-0.002627708;-0.015504837;0.015895215;;;
7;03:36:12:456;0.017173827;0.005559279;0.018241882;0.02566344;;;
7;03:36:12:467;-0.00158383;-0.010875467;0.006932259;0.012993865;;;
7;03:36:12:478;-0.001267061;-0.008700375;0.013207436;0.015866263;;;
7;03:36:12:488;-0.001013644;0.008362593;0.002904892;0.008910602;;;
7;03:36:12:499;0.006850533;0.006690076;0.009985924;0.013834941;;;
7;03:36:12:510;0.005480424;-0.002309386;-0.007334709;0.009442789;;;
7;03:36:12:520;-0.003277108;0.005813936;-0.005867958;0.008886744;;;
7;03:36:12:531;-0.010283135;-0.010671742;0.002966881;0.015113945;;;
7;03:36:12:542;0.001080237;-7.01E-04;0.001898766;0.002294186;;;
7;03:36:12:551;0.001080237;-7.01E-04;0.001898766;0.002294186;;;
7;03:36:12:562;0.017546535;0.001083806;-0.004914284;0.018253922;;;
7;03:36:12:573;0.006375782;8.67E-04;-0.003931999;0.007540755;;;
7;03:36:12:583;0.005100623;0.008355083;0.004515648;0.010780299;;;
7;03:36:12:594;0.011741944;0.006684067;-0.004049301;0.014104851;;;
7;03:36:12:604;-0.005929336;-0.002314191;0.004422188;0.007750371;;;
7;03:36:12:614;0.002917983;0.013471536;-0.004123688;0.014387554;;;
7;03:36:12:624;-0.005327061;0.003115783;-0.00329876;0.006997678;;;
7;03:36:12:635;-0.011923097;0.002492625;0.005022049;0.013175523;;;
7;03:36:12:647;-0.001877032;0.0019941;0.019340515;0.019533438;;;
7;03:36:12:657;-0.009163074;-0.013727609;1.50E-04;0.016505502;;;
7;03:36:12:667;0.007992432;0.012002248;1.20E-04;0.01442038;;;
7;03:36:12:678;-0.001014002;0.001552282;-0.007584572;0.007807913;;;
7;03:36:12:689;0.014511697;-0.029403958;-0.013729095;0.035548139;;;
7;03:36:12:701;0.003947914;-0.008200273;0.012001038;0.01506172;;;
7;03:36:12:712;0.010819778;0.001101226;0.009600639;0.014506983;;;
7;03:36:12:723;0.023978718;-0.006780464;-0.022965431;0.033887529;;;
7;03:36:12:733;-0.003801368;-0.005424373;-0.010710716;0.012593398;;;
7;03:36:12:743;-0.003041096;-0.004339498;0.014415741;0.015358812;;;
7;03:36:12:753;-0.002432875;-0.011133045;0.011532784;0.016213225;;;
7;03:36:12:764;-0.009607747;-0.001244988;-0.013757706;0.016826564;;;
7;03:36:12:775;-0.007686198;0.006665453;0.00431633;0.011051543;;;
7;03:36:12:785;-0.006148957;0.005332366;-0.011869431;0.014391913;;;
7;03:36:12:796;0.002193824;-0.011910182;-0.00759697;0.014296126;;;
7;03:36:12:806;-0.013567835;-0.040173925;0.001584053;0.042432766;;;
7;03:36:12:816;-0.3019892;-0.35391986;-0.006394386;0.465293058;;;
7;03:36:12:827;-0.43312746;-0.23716721;0.040852547;0.495496345;;;
7;03:36:12:836;-0.23924175;-0.28933257;0.009697914;0.375558259;;;
7;03:36:12:847;-0.43655968;-0.6145384;0.007758141;0.753858061;;;
7;03:36:12:856;-1.644032;-1.8400451;-0.13169956;2.471022514;;;
7;03:36:12:867;-0.9551377;-2.690206;0.001900673;2.854732893;;;
7;03:36:12:878;0.4157524;-3.324366;-0.0674324;3.350941136;;;
7;03:36:12:887;0.953179;-3.1191797;0.12226772;3.263860052;;;
7;03:36:12:898;0.88512635;-2.4034066;0.34298134;2.584075903;;;
7;03:36:12:909;0.66979384;-2.1142612;-0.101026535;2.22011943;;;
7;03:36:12:918;0.8422929;-2.1281114;-0.41026306;2.325216435;;;
7;03:36:12:929;1.0109379;-1.9246712;-0.10602856;2.176602056;;;
7;03:36:12:940;1.2071455;-1.3022318;0.25994205;1.794596812;;;
7;03:36:12:950;0.735873;-0.82726526;0.3075533;1.149115226;;;
7;03:36:12:959;0.106027365;-0.45495272;-0.26727486;0.538200352;;;
7;03:36:12:969;-0.31357327;0.034433365;0.5599861;0.64272724;;;
7;03:36:12:980;-0.61094654;0.3952961;-0.2798481;0.779634293;;;
7;03:36:12:991;-0.34318978;0.76060104;0.021287918;0.834713298;;;
7;03:36:13:000;-0.31285906;1.1601048;0.14727497;1.210542774;;;
7;03:36:13:011;-0.085308135;2.0265255;-0.34704208;2.057795274;;;
7;03:36:13:022;0.65959084;1.3990386;0.1743908;1.556528583;;;
7;03:36:13:031;1.1252654;1.3797197;-0.013716698;1.780459714;;;
7;03:36:13:042;1.0457797;2.1610556;-0.003312111;2.400797227;;;
7;03:36:13:052;0.72936356;2.4336975;0.11993313;2.543469826;;;
7;03:36:13:062;-0.060070515;2.2687387;0.08062363;2.270965491;;;
7;03:36:13:073;-1.0593672;3.1250982;0.19474316;3.305514041;;;
7;03:36:13:082;-2.0809865;4.0323677;-0.67164135;4.587111886;;;
7;03:36:13:093;-2.346658;4.375111;-0.36109924;4.977830183;;;
7;03:36:13:103;-1.9692637;5.032378;0.35468102;5.415591422;;;
7;03:36:13:114;-1.3915362;4.6311564;-0.26787853;4.84311283;;;
7;03:36:13:124;-0.7071724;4.2565494;-0.16067314;4.317883876;;;
7;03:36:13:135;0.001209021;3.7729883;0.5533304;3.813347269;;;
7;03:36:13:146;-0.20589185;2.811532;-0.09363747;2.820615462;;;
7;03:36:13:157;-1.0036433;2.1533394;-0.5717125;2.443568183;;;
7;03:36:13:168;-0.5117798;1.6000881;0.46200466;1.742311345;;;
7;03:36:13:179;0.13453889;0.36069727;-0.09774494;0.397186728;;;
7;03:36:13:190;1.088296;-0.6691227;0.021402359;1.277721198;;;
7;03:36:13:201;2.801321;-2.5272741;-0.03650856;3.773042204;;;
7;03:36:13:212;5.083453;-5.2702723;0.024422646;7.322421655;;;
7;03:36:13:221;2.7260096;-5.120269;0.057845116;5.801002205;;;
7;03:36:13:232;-0.8224789;-3.460315;0.030953407;3.556853923;;;
7;03:36:13:243;-0.73459756;-2.7759135;0.055408478;2.872002573;;;
7;03:36:13:252;-0.4421106;-2.2283921;0.044326782;2.27225844;;;
7;03:36:13:262;-0.35368848;-1.7673908;0.043123245;1.802949142;;;
7;03:36:13:273;-0.30593514;-1.436897;0.003852844;1.469109998;;;
7;03:36:13:283;-0.260071;-1.1112105;0.003082275;1.141242814;;;
7;03:36:13:293;-0.13579965;-0.6207697;-0.005688667;0.635475349;;;
7;03:36:13:304;-0.024363816;-0.61153746;0.01843357;0.612300137;;;
7;03:36:13:314;-0.019491047;-0.5735059;0.0070858;0.573880725;;;
7;03:36:13:324;-0.046238616;-0.47412765;0.00566864;0.476410701;;;
7;03:36:13:335;-0.09828246;-0.40228647;-0.010787964;0.414258641;;;
7;03:36:13:346;-0.09394885;-0.2911834;-9.69E-04;0.305965847;;;
7;03:36:13:356;-0.121127754;-0.18697804;0.006886482;0.22289043;;;
7;03:36:13:367;-0.043272093;-0.141921;0.005509377;0.14847356;;;
7;03:36:13:378;-0.019294776;-0.0982139;-0.010915756;0.100684719;;;
7;03:36:13:389;-0.015435822;-0.07090968;-0.001070976;0.072578192;;;
7;03:36:13:400;-0.012348659;-0.06438919;0.006804466;0.065914776;;;
7;03:36:13:411;-0.007903136;-0.04733824;0.001290321;0.048010766;;;
7;03:36:13:421;-0.006322511;-0.045532037;0.016355515;0.048791839;;;
7;03:36:13:432;-0.005058006;-0.02110274;0.013084412;0.025339907;;;
7;03:36:13:443;-0.004046403;-0.009220745;-0.004855156;0.011178912;;;
7;03:36:13:452;0.004424319;-0.007376596;0.003777504;0.009394589;;;
7;03:36:13:463;-0.004121989;0.00176017;-0.012300491;0.013091641;;;
7;03:36:13:473;-0.010959037;-0.013914755;0.005482674;0.018541321;;;
7;03:36:13:483;-0.001105785;-0.003470359;-0.003275871;0.004898723;;;
7;03:36:13:494;-0.008546077;-0.018099178;0.005041122;0.020640459;;;
7;03:36:13:503;8.25E-04;-0.0068179;-0.003628731;0.007767328;;;
7;03:36:13:514;6.60E-04;0.002207125;0.012419701;0.012631529;;;
7;03:36:13:523;5.28E-04;0.009427145;-0.005387306;0.010870724;;;
7;03:36:13:534;4.22E-04;-0.007781174;-0.01963234;0.02112235;;;
7;03:36:13:545;3.38E-04;0.009097952;0.007278442;0.011656008;;;
7;03:36:13:556;0.00793165;-3.83E-04;0.005823135;0.009847169;;;
7;03:36:13:567;-0.001052894;-0.020164933;0.006792069;0.021304115;;;
7;03:36:13:578;-0.008503757;-0.008470498;0.005434036;0.013175431;;;
7;03:36:13:588;-0.006803006;8.85E-04;0.004346848;0.008121532;;;
7;03:36:13:598;0.002219044;0.01603093;0.003477097;0.016553099;;;
7;03:36:13:608;0.001775235;-0.010159589;0.002781868;0.010682111;;;
7;03:36:13:619;0.001420192;0.014856663;-0.005435944;0.01588354;;;
7;03:36:13:630;0.008797601;0.004223885;-0.012010574;0.015475557;;;
7;03:36:13:641;-6.23E-04;0.003379108;0.013376236;0.013810527;;;
7;03:36:13:652;-4.99E-04;-0.00495816;0.00303936;0.00583693;;;
7;03:36:13:662;-3.99E-04;-0.003966529;0.017754555;0.018196614;;;
7;03:36:13:673;-3.19E-04;0.012149669;-0.008780479;0.01499377;;;
7;03:36:13:684;-0.007916771;-0.005603157;-0.014685631;0.017599386;;;
7;03:36:13:696;0.001062423;-0.011247464;0.005924225;0.012756591;;;
7;03:36:13:706;8.50E-04;-0.001336526;-0.002922058;0.003323721;;;
7;03:36:13:717;6.80E-04;-0.001069222;0.00532341;0.005472136;;;
7;03:36:13:728;5.44E-04;-8.55E-04;0.019581795;0.019608015;;;
7;03:36:13:739;4.35E-04;-0.008345746;-0.014980316;0.017153738;;;
7;03:36:13:749;3.48E-04;0.008646296;-0.004323006;0.009673056;;;
7;03:36:13:760;2.79E-04;0.006917039;0.004202843;0.008098573;;;
7;03:36:13:769;2.23E-04;0.00553363;0.003362656;0.006479056;;;
7;03:36:13:780;1.78E-04;0.012088351;-0.01263237;0.017485331;;;
7;03:36:13:791;1.43E-04;-0.013313655;0.005216599;0.014299882;;;
7;03:36:13:800;1.14E-04;-0.002989478;0.004173279;0.005134808;;;
7;03:36:13:811;7.30E-05;0.004215891;0.014929771;0.015513773;;;
7;03:36:13:821;5.84E-05;0.003372712;0.011943817;0.012411018;;;
7;03:36:13:832;-0.015276164;-0.004963275;0.017216682;0.023545901;;;
7;03:36:13:842;0.003101967;0.003690826;-0.016872406;0.017547719;;;
7;03:36:13:853;0.002481572;0.00295266;-0.013498306;0.014038542;;;
7;03:36:13:863;0.001985259;-0.012960762;0.004524231;0.013870518;;;
7;03:36:13:874;0.001588211;-0.010368608;0.026603699;0.02859698;;;
7;03:36:13:884;0.00127057;-0.008294888;0.01362133;0.015998755;;;
7;03:36:13:894;0.00101646;0.00868698;-0.012087822;0.014920196;;;
7;03:36:13:905;8.13E-04;0.006949583;-0.002008438;0.007279545;;;
7;03:36:13:915;6.51E-04;0.005559666;0.006054878;0.008245886;;;
7;03:36:13:925;5.20E-04;-0.003213711;-0.002817154;0.004305246;;;
7;03:36:13:936;-0.007245101;0.005090477;-0.002253532;0.009136895;;;
7;03:36:13:945;-0.005796082;-0.003589064;-0.001802445;0.007051578;;;
7;03:36:13:956;-0.004636869;-0.002871253;-0.001441956;0.005641266;;;
7;03:36:13:966;0.003161565;-0.00336989;-0.005519867;0.007198651;;;
7;03:36:13:976;0.003161565;-0.00336989;-0.005519867;0.007198651;;;
7;03:36:13:987;0.002023406;0.007037005;0.01791954;0.019357777;;;
7;03:36:13:996;0.002023406;0.007037005;0.01791954;0.019357777;;;
7;03:36:14:007;0.001294985;-0.001625471;-0.006918907;0.007224294;;;
7;03:36:14:017;0.001035988;0.006361069;-0.020857811;0.021830821;;;
7;03:36:14:028;8.29E-04;-0.002572589;-0.001363754;0.003027365;;;
7;03:36:14:039;6.63E-04;-0.00205807;0.014231682;0.014395001;;;
7;03:36:14:049;5.30E-04;-0.009307899;0.011385918;0.014715891;;;
7;03:36:14:059;4.24E-04;-0.007446319;0.001447678;0.007597599;;;
7;03:36:14:069;3.39E-04;0.009365836;0.00881958;0.01286931;;;
7;03:36:14:080;2.72E-04;-1.69E-04;-6.06E-04;6.85E-04;;;
7;03:36:14:091;2.17E-04;-0.007796466;0.014838219;0.016763198;;;
7;03:36:14:101;1.74E-04;-0.006237175;0.004209518;0.007526793;;;
7;03:36:14:111;1.39E-04;-0.00498974;-0.004293442;0.006584108;;;
7;03:36:14:122;1.11E-04;0.011331098;-0.011096001;0.015859616;;;
7;03:36:14:131;-0.00757245;0.001403436;0.006445885;0.010042961;;;
7;03:36:14:141;0.001603484;0.008784195;0.005156517;0.010311301;;;
7;03:36:14:151;0.001282789;-0.008295532;-0.011198044;0.013994912;;;
7;03:36:14:162;0.001026236;0.001025021;-0.001296997;0.001945772;;;
7;03:36:14:172;6.57E-04;-0.013134591;0.003767014;0.013679885;;;
7;03:36:14:182;5.25E-04;0.012476666;-0.012309074;0.01753444;;;
7;03:36:14:193;4.20E-04;0.009981336;-0.025170326;0.02708042;;;
7;03:36:14:204;3.36E-04;0.007985069;-0.012475014;0.014815545;;;
7;03:36:14:214;-0.007392421;0.006388055;0.005342484;0.011135406;;;
7;03:36:14:225;-0.013575383;-0.002551001;-0.003387451;0.014222287;;;
7;03:36:14:236;0.004462592;-0.009702243;0.012613297;0.016527053;;;
7;03:36:14:247;0.003570072;-1.00E-04;-0.012893677;0.013379177;;;
7;03:36:14:256;0.002856061;-0.007741727;0.005007744;0.009652405;;;
7;03:36:14:267;0.002284847;-0.006193381;0.004006386;0.007722021;;;
7;03:36:14:278;0.001827881;0.010368185;0.010867119;0.015130588;;;
7;03:36:14:287;0.001462303;6.33E-04;-0.00662899;0.006817819;;;
7;03:36:14:298;0.001169846;0.008167932;0.010020256;0.012980338;;;
7;03:36:14:308;-0.006725572;0.006534347;0.008016586;0.012336801;;;
7;03:36:14:318;0.002280988;0.005227478;-0.00124836;0.005838479;;;
7;03:36:14:329;-0.004669331;0.018668478;-7.99E-04;0.019260151;;;
7;03:36:14:339;0.8115613;-0.11333132;0.022881508;0.819755619;;;
7;03:36:14:349;0.75996864;0.31973398;-0.07116413;0.827554506;;;
7;03:36:14:360;2.8683224;-0.3755348;-0.2155428;2.900820182;;;
7;03:36:14:371;2.8683224;-0.3755348;-0.2155428;2.900820182;;;
7;03:36:14:380;2.8683224;-0.3755348;-0.2155428;2.900820182;;;
7;03:36:14:391;2.8683224;-0.3755348;-0.2155428;2.900820182;;;
7;03:36:14:402;2.8683224;-0.3755348;-0.2155428;2.900820182;;;
7;03:36:14:411;2.8683224;-0.3755348;-0.2155428;2.900820182;;;
7;03:36:14:421;2.8683224;-0.3755348;-0.2155428;2.900820182;;;
7;03:36:14:431;1.8119864;-0.6451929;-0.25671005;1.940481599;;;
7;03:36:14:442;1.8119864;-0.6451929;-0.25671005;1.940481599;;;
7;03:36:14:452;1.0282097;-0.9298724;-0.41222763;1.446308927;;;
7;03:36:14:462;-0.59479904;-0.6289762;-0.39873505;0.953093231;;;
7;03:36:14:472;-2.2839408;-0.20438462;0.018115044;2.293138956;;;
7;03:36:14:482;-3.5126705;0.21190313;0.46651745;3.549844448;;;
7;03:36:14:492;-3.8520932;0.39936587;-0.46954536;3.901100977;;;
7;03:36:14:502;-3.656283;0.29650837;-0.046194077;3.668576841;;;
7;03:36:14:512;-2.879058;-0.17651138;-0.0446167;2.884808767;;;
7;03:36:14:522;-2.3262305;-0.03394887;0.048582077;2.326985432;;;
7;03:36:14:533;-1.8412141;0.31997323;0.26246834;1.887151759;;;
7;03:36:14:543;-11.693339;-7.060702;1.4664516;13.73820184;;;
7;03:36:14:553;-14.127753;6.1117573;0.3150797;15.39630685;;;
7;03:36:14:563;-4.897234;6.299112;-0.17697716;7.980791635;;;
7;03:36:14:573;3.153727;0.48072934;-1.0456324;3.35714804;;;
7;03:36:14:584;6.338382;-2.4654741;-1.9397535;7.072219507;;;
7;03:36:14:593;7.1852646;-2.7768312;0.35589695;7.711386686;;;
7;03:36:14:603;5.786519;-1.0569252;0.39197826;5.895298407;;;
7;03:36:14:613;3.3957226;-0.5544052;-0.092473984;3.441925252;;;
7;03:36:14:623;1.5596998;-0.1370664;0.1482029;1.572709337;;;
7;03:36:14:633;0.4816153;0.043575794;-0.004020691;0.483599349;;;
7;03:36:14:643;0.17077178;-0.5014405;0.20364189;0.567517079;;;
7;03:36:14:654;0.48138246;-0.43945962;0.13992882;0.666658757;;;
7;03:36:14:664;0.660918;0.42223823;0.16557312;0.801568589;;;
7;03:36:14:674;0.33719826;0.25351468;-0.18166065;0.459317902;;;
7;03:36:14:684;0.5149249;0.3330563;0.17645168;0.638129561;;;
7;03:36:14:694;0.37363267;0.25112218;0.14882278;0.474143376;;;
7;03:36:14:705;0.1610001;0.32348084;0.08075142;0.370245436;;;
7;03:36:14:715;0.28969043;0.38136783;0.03395462;0.480119671;;;
7;03:36:14:725;0.5995017;0.20549548;-0.110741615;0.643346287;;;
7;03:36:14:736;0.41830984;0.04181326;0.018667221;0.420808663;;;
7;03:36:14:745;0.066497296;0.11006506;-0.015711784;0.129549481;;;
7;03:36:14:756;0.030213498;0.12635927;-0.035553932;0.134698194;;;
7;03:36:14:766;0.00118646;0.085764535;-0.020781517;0.088254375;;;
7;03:36:14:776;-0.014373727;0.08393452;-0.016625404;0.086764118;;;
7;03:36:14:786;0.003823914;0.059486173;-0.028623581;0.066125156;;;
7;03:36:14:797;0.01164104;-0.015558966;0.007730484;0.020913049;;;
7;03:36:14:807;0.009312831;-0.020108622;-0.024461746;0.033007008;;;
7;03:36:14:817;0.007450268;-0.031409785;0.003415108;0.032461423;;;
7;03:36:14:828;0.005960219;-0.009804942;0.002732277;0.011795186;;;
7;03:36:14:838;0.012429625;0.007478941;0.002185822;0.014669968;;;
7;03:36:14:848;0.025266588;0.021306043;0.001749039;0.033096934;;;
7;03:36:14:858;-0.002771057;0.04002917;0.00139904;0.040149354;;;
7;03:36:14:868;-0.009878293;0.024361892;-0.006542206;0.027090273;;;
7;03:36:14:878;-0.015564084;-0.003494822;-0.02055645;0.026019649;;;
7;03:36:14:888;-0.004789822;-0.002795856;-0.008784294;0.010388601;;;
7;03:36:14:898;0.003829591;-0.002236687;6.34E-04;0.004480038;;;
7;03:36:14:909;0.018386565;-0.01711224;0.01583004;0.029689808;;;
7;03:36:14:918;0.014709257;-0.013689794;0.005002976;0.020707546;;;
7;03:36:14:928;0.034751743;-0.010951836;-0.011321068;0.038154855;;;
7;03:36:14:938;-0.002844393;-0.008761469;-0.001395226;0.009316683;;;
7;03:36:14:948;-0.009936959;6.52E-04;-0.008777618;0.013274607;;;
7;03:36:14:959;-0.03859535;-0.007139631;0.008300781;0.040118303;;;
7;03:36:14:969;-0.099829294;0.047918417;-0.008682251;0.111074049;;;
7;03:36:14:979;0.06570403;2.75E-05;0.008377075;0.066235913;;;
7;03:36:14:990;0.029578894;-0.007639442;-0.008621216;0.031742675;;;
7;03:36:15:000;0.016001679;-0.013773002;-0.006896973;0.022210753;;;
7;03:36:15:010;0.028124228;0.011965936;-0.00551796;0.03105807;;;
7;03:36:15:020;0.03016083;0.001911305;0.018569946;0.035470715;;;
7;03:36:15:030;0.00114432;-0.006132402;-0.015789986;0.016977616;;;
7;03:36:15:041;-0.022068873;-0.004905921;0.002691269;0.022767218;;;
7;03:36:15:051;-0.0110595;0.004521653;-0.004406929;0.012734948;;;
7;03:36:15:061;-0.001186155;0.011278769;0.004136086;0.012071653;;;
7;03:36:15:072;-9.49E-04;0.001361571;0.00330925;0.003702089;;;
7;03:36:15:082;0.006902307;0.01641215;0.017970085;0.025296728;;;
7;03:36:15:092;0.028506182;0.005468274;0.006714821;0.029792503;;;
7;03:36:15:102;0.007482052;-0.003286827;-0.002289772;0.008486895;;;
7;03:36:15:112;-0.009337254;-0.010290906;-0.009493828;0.016829136;;;
7;03:36:15:122;-0.007469803;-0.01589417;0.007727623;0.019186943;;;
7;03:36:15:133;-0.013637289;0.002607554;0.021505356;0.025597956;;;
7;03:36:15:144;-0.010909833;-0.0055754;-0.00578022;0.013546973;;;
7;03:36:15:155;-0.001066424;0.003201127;-0.012286186;0.012741069;;;
7;03:36:15:165;-0.008514583;0.002560899;-0.002167702;0.00915179;;;
7;03:36:15:174;0.008511215;0.002048716;-0.009395599;0.012841936;;;
7;03:36:15:185;0.006808966;0.001638971;0.007806778;0.010487804;;;
7;03:36:15:195;0.005447179;-0.006350268;0.013906479;0.016229227;;;
7;03:36:15:205;-0.003303699;-0.012741663;-0.004198074;0.013816231;;;
7;03:36:15:215;0.005018488;-0.010193329;0.011964798;0.016499865;;;
7;03:36:15:225;-0.003646649;-4.93E-04;0.009572029;0.010255001;;;
7;03:36:15:235;-0.010578766;-3.95E-04;-0.0153265;0.018627066;;;
7;03:36:15:245;-0.008463018;0.007345781;-0.004599571;0.012113596;;;
7;03:36:15:255;8.91E-04;0.013538072;-0.003679276;0.014057396;;;
7;03:36:15:265;0.0082317;-0.011255395;-0.011548996;0.018105913;;;
7;03:36:15:275;0.014246814;0.006318577;-0.001577377;0.015664745;;;
7;03:36:15:285;-0.003925443;0.005054861;-0.001261711;0.006523238;;;
7;03:36:15:295;-0.003140353;0.004043892;-0.016332626;0.017116353;;;
7;03:36:15:305;-0.002512284;0.003235117;0.002256393;0.004676415;;;
7;03:36:15:315;-0.002009824;0.010249542;-0.005856514;0.011974609;;;
7;03:36:15:325;-0.001607858;0.008199634;-0.004685402;0.00957978;;;
7;03:36:15:335;-0.001286283;0.006559709;0.003912926;0.007745663;;;
7;03:36:15:346;-0.001029022;-0.010075122;0.003129959;0.010600171;;;
7;03:36:15:356;-8.23E-04;-0.015721545;0.0254879;0.029957933;;;
7;03:36:15:367;0.007002875;0.002745658;0.005067825;0.009069826;;;
7;03:36:15:377;0.0056023;-0.005464919;0.00405407;0.008813999;;;
7;03:36:15:387;0.004481837;0.010950955;-0.004418373;0.01263061;;;
7;03:36:15:397;0.003585473;0.001099318;-0.011196137;0.011807523;;;
7;03:36:15:407;-0.004793063;8.79E-04;-0.008956909;0.01019672;;;
7;03:36:15:417;-0.011495896;7.04E-04;0.00815773;0.014113794;;;
7;03:36:15:428;-0.001535274;-0.007098597;0.006525993;0.009764002;;;
7;03:36:15:438;-0.001228221;0.009644015;-0.017763138;0.020249559;;;
7;03:36:15:449;-9.83E-04;0.007715212;-0.014210701;0.016199814;;;
7;03:36:15:459;0.006875381;-0.001489274;0.003953934;0.008069845;;;
7;03:36:15:469;0.005500302;-0.008852862;0.003163338;0.010891886;;;
7;03:36:15:480;0.012061693;0.008240601;0.017853737;0.023068329;;;
7;03:36:15:490;-0.004538827;6.77E-04;-0.003896713;0.006020283;;;
7;03:36:15:500;-0.003631063;5.42E-04;-0.010779381;0.01138741;;;
7;03:36:15:510;-0.002904847;-0.007228088;-0.008624077;0.011621449;;;
7;03:36:15:520;-0.002323873;0.001878977;-0.014560699;0.014864216;;;
7;03:36:15:531;-0.009520546;0.00916463;0.011336327;0.017411017;;;
7;03:36:15:541;4.50E-05;-0.007991187;0.009069443;0.01208784;;;
7;03:36:15:551;3.60E-05;0.001268491;-0.008067131;0.008166331;;;
7;03:36:15:562;0.007690251;0.001014791;0.008869171;0.011782698;;;
7;03:36:15:573;0.006152198;-0.006849613;-0.008227348;0.012347307;;;
7;03:36:15:584;-0.002739683;0.002181754;0.001079559;0.003664882;;;
7;03:36:15:593;-0.002191745;0.009406852;8.64E-04;0.009697378;;;
7;03:36:15:604;-0.001753397;0.007525483;6.91E-04;0.007757922;;;
7;03:36:15:615;-0.001402713;-0.001641057;5.53E-04;0.002228593;;;
7;03:36:15:624;-0.001122169;-0.001312845;4.43E-04;0.001782873;;;
7;03:36:15:635;-8.98E-04;-0.001050275;-0.007308006;0.00743747;;;
7;03:36:15:646;-7.18E-04;-0.008501664;0.024799347;0.026225974;;;
7;03:36:15:657;-4.60E-04;0.008349536;0.005145073;0.009818237;;;
7;03:36:15:668;-3.68E-04;-0.016304709;-0.003545761;0.016689852;;;
7;03:36:15:678;-0.023278505;-0.013043769;-0.002836227;0.026834173;;;
7;03:36:15:688;-0.026284248;0.012549324;-0.017591476;0.034026566;;;
7;03:36:15:699;-0.02868884;0.002378017;-0.006411552;0.029492585;;;
7;03:36:15:708;-0.06891975;0.032548197;0.01785469;0.078282225;;;
7;03:36:15:718;-0.10110447;-0.004607223;-0.01636219;0.102523471;;;
7;03:36:15:729;0.011053771;-0.01900867;0.002233505;0.022102126;;;
7;03:36:15:740;0.001181569;-0.015206937;0.001787186;0.015357118;;;
7;03:36:15:749;0.016268145;-0.042811327;-0.006232262;0.046220162;;;
7;03:36:15:760;-0.017631263;-0.02658762;0.010336876;0.033535264;;;
7;03:36:15:770;-0.1137038;-0.044254437;-0.007053375;0.122216039;;;
7;03:36:15:782;-0.19056185;-0.058387883;-0.020965576;0.200405875;;;
7;03:36:15:792;-0.5125374;-0.16163199;-0.116371155;0.549874283;;;
7;03:36:15:802;-0.66285765;-0.24422728;-0.001159668;0.706419538;;;
7;03:36:15:813;-2.6368542;-0.71712327;0.5554781;2.788516122;;;
7;03:36:15:824;-2.377634;0.6827784;-0.6741886;2.563954104;;;
7;03:36:15:835;-1.8178315;0.58453;-0.29418468;1.932027718;;;
7;03:36:15:844;-1.247406;0.44463965;-0.25833225;1.349244837;;;
7;03:36:15:855;-0.87534165;0.53192496;-0.21432686;1.04647176;;;
7;03:36:15:866;-0.5087373;0.6400605;-0.24041462;0.852226698;;;
7;03:36:15:875;-0.38400555;0.6346315;-0.26128483;0.786439596;;;
7;03:36:15:886;-0.39148045;0.39278352;0.0437994;0.55628608;;;
7;03:36:15:897;-0.47407484;-0.015215337;-0.1335125;0.49275151;;;
7;03:36:15:908;-0.20304656;-0.26499996;0.27626228;0.433328668;;;
7;03:36:15:918;0.3662026;-0.27329156;-0.3382759;0.568527249;;;
7;03:36:15:928;0.78329444;-0.3412164;-0.11739159;0.862414965;;;
7;03:36:15:939;1.2089056;-0.26531166;0.12826824;1.244305323;;;
7;03:36:15:949;1.0495117;-0.13149224;-0.11863804;1.064349584;;;
7;03:36:15:959;0.8166251;0.17827968;-0.1945095;0.858192358;;;
7;03:36:15:969;0.6992688;0.004717734;0.05891323;0.701762002;;;
7;03:36:15:979;0.3908633;0.1570031;0.33826637;0.540229805;;;
7;03:36:15:989;0.28970635;0.5163362;-0.005199432;0.592080983;;;
7;03:36:15:999;0.8906494;0.31347018;-0.14206505;0.954831082;;;
7;03:36:16:010;1.6931846;-0.009712994;0.37668037;1.734605654;;;
7;03:36:16:020;2.289244;-0.20696798;-0.3268938;2.321709107;;;
7;03:36:16:031;3.0955338;-0.32646474;-0.20788479;3.119635288;;;
7;03:36:16:042;3.556691;-0.8127959;0.025227547;3.648468606;;;
7;03:36:16:052;3.435284;-0.88008004;0.18873405;3.551244389;;;
7;03:36:16:062;3.0393622;-0.6580954;-0.002241135;3.10979363;;;
7;03:36:16:072;2.6383486;-0.3042944;0.036514282;2.656089509;;;
7;03:36:16:082;2.041726;-0.49626327;0.029211998;2.101374848;;;
7;03:36:16:093;1.4801521;-0.2514431;-0.02259922;1.501527406;;;
7;03:36:16:104;0.95427847;-0.024941206;-0.018079758;0.954775522;;;
7;03:36:16:115;0.19647598;0.17158318;-0.12172413;0.287854752;;;
7;03:36:16:125;-0.50170374;0.45138583;0.1477871;0.690866702;;;
7;03:36:16:134;-1.1368616;0.7058737;0.06459999;1.339733242;;;
7;03:36:16:145;-1.5029299;0.7520879;-0.0398674;1.681078171;;;
7;03:36:16:156;-1.424526;0.86215943;-0.008909225;1.665134353;;;
7;03:36:16:167;-2.5340037;0.1917336;0.031180382;2.541438379;;;
7;03:36:16:177;-1.9276043;-0.22968538;-0.044008255;1.941739029;;;
7;03:36:16:187;-1.5420835;-0.16076398;0.01842308;1.550550237;;;
7;03:36:16:196;-1.1034223;-0.02135095;0.007077217;1.103651514;;;
7;03:36:16:207;-0.71418595;-0.19329402;-0.032645226;0.740601019;;;
7;03:36:16:216;-0.73990065;-0.19294244;0.004529953;0.764656973;;;
7;03:36:16:226;-0.79877955;-0.13903105;0.003623962;0.810796823;;;
7;03:36:16:236;-0.730961;-0.07291762;-0.020085335;0.734863525;;;
7;03:36:16:247;-0.46984714;-0.08131843;-0.008406639;0.476906387;;;
7;03:36:16:257;-0.29160184;-0.04207041;-0.014387131;0.294972106;;;
7;03:36:16:268;-0.23328145;-0.079625;0.019136429;0.247237899;;;
7;03:36:16:279;-0.23259385;-0.07902289;-0.007675171;0.245771083;;;
7;03:36:16:288;-0.19373655;-0.070879765;0.00918293;0.206499686;;;
7;03:36:16:298;-0.124343455;-0.018396582;-3.15E-04;0.125697366;;;
7;03:36:16:309;-0.09181333;6.06E-04;-0.015574455;0.093126899;;;
7;03:36:16:318;-0.07345068;-0.007176943;-0.02012062;0.076494119;;;
7;03:36:16:330;-0.058760546;0.001919888;-0.008435249;0.05939395;;;
7;03:36:16:340;-0.047008447;0.016858801;0.008574486;0.05067085;;;
7;03:36:16:350;-0.03760677;0.005825596;0.006859779;0.038668633;;;
7;03:36:16:361;-0.024068333;-0.013126798;-0.007868767;0.028522184;;;
7;03:36:16:372;-0.026916102;-0.002839994;0.001366615;0.027099995;;;
7;03:36:16:382;-0.013871439;0.013050895;-0.006567955;0.020146482;;;
7;03:36:16:393;-0.003435701;0.018102162;0.010068893;0.020997022;;;
7;03:36:16:403;-0.010410003;0.006820284;-0.007267952;0.014412064;;;
7;03:36:16:414;-0.008327998;0.005456228;0.001847267;0.010126123;;;
7;03:36:16:425;-0.006662399;0.012026429;0.001478195;0.013827784;;;
7;03:36:16:436;-0.020652808;-0.013363194;0.001182556;0.024627462;;;
7;03:36:16:447;-0.016522244;-0.010690555;0.008607864;0.021479475;;;
7;03:36:16:458;-0.002912782;-0.012971111;0.005509377;0.014390526;;;
7;03:36:16:468;0.005331218;0.004946003;-0.018576622;0.019949329;;;
7;03:36:16:478;0.004264973;0.003956804;4.62E-04;0.005836039;;;
7;03:36:16:489;-0.004249468;0.003165444;0.008030891;0.009621499;;;
7;03:36:16:501;0.004261874;0.010193802;-0.001236916;0.011117874;;;
7;03:36:16:512;0.003409497;0.015816487;0.006671906;0.017501437;;;
7;03:36:16:523;-0.004933849;-0.010331146;-0.009985924;0.01519191;;;
7;03:36:16:534;0.003714368;-6.03E-04;-0.015649796;0.016095863;;;
7;03:36:16:545;0.002971493;-4.83E-04;-0.004858971;0.005715981;;;
7;03:36:16:556;0.001901761;-0.006438136;0.003019333;0.007360887;;;
7;03:36:16:567;0.001521409;0.010172382;0.002415657;0.010565389;;;
7;03:36:16:576;0.001217127;0.008137904;-0.013390541;0.015716662;;;
7;03:36:16:587;9.74E-04;-0.008812567;-0.003050804;0.009376398;;;
7;03:36:16:597;-0.006882481;6.11E-04;0.005220413;0.008659969;;;
7;03:36:16:608;-0.005505987;4.89E-04;0.011837959;0.01306493;;;
7;03:36:16:619;-0.004404791;-0.007270156;0.00947094;0.012726195;;;
7;03:36:16:631;0.004137613;-0.005816124;0.007576942;0.010409476;;;
7;03:36:16:642;0.003310092;0.003008546;-0.009261131;0.010284775;;;
7;03:36:16:653;0.002118461;0.011119206;0.018589973;0.02176492;;;
7;03:36:16:664;-0.005966678;-0.01408897;-4.51E-04;0.015306985;;;
7;03:36:16:673;-0.004773341;0.004051713;0.007300377;0.009617519;;;
7;03:36:16:684;-0.003818676;0.00324137;-0.001821518;0.005329793;;;
7;03:36:16:695;0.004606508;0.002593095;-0.009119034;0.010540438;;;
7;03:36:16:706;0.003685206;0.002074475;-0.007295609;0.00843268;;;
7;03:36:16:717;0.002948165;0.009321027;0.017148018;0.019738989;;;
7;03:36:16:728;-0.112563156;0.15302429;-0.00160408;0.189972284;;;
7;03:36:16:740;-0.005774617;-0.007825144;-0.001283646;0.009809527;;;
7;03:36:16:750;0.1639321;-0.17481193;-0.001027107;0.23965391;;;
7;03:36:16:760;0.016223997;-0.047912188;-0.016144753;0.053098481;;;
7;03:36:16:769;-0.010005131;0.007638916;-0.005254746;0.013640676;;;
7;03:36:16:780;-0.006403282;0.020211797;0.025751114;0.03335624;;;
7;03:36:16:791;-0.005122624;8.47E-04;-0.010045052;0.011307563;;;
7;03:36:16:800;-0.004098095;0.016000133;0.007287026;0.018052684;;;
7;03:36:16:811;-0.003278472;0.00513866;-0.001832008;0.006364782;;;
7;03:36:16:821;-0.01794567;-0.011211962;-0.001465797;0.021210934;;;
7;03:36:16:832;-0.006695084;-0.001308125;0.01415062;0.015709085;;;
7;03:36:16:842;0.002305381;0.006614948;0.003659248;0.007903317;;;
7;03:36:16:853;-0.013478585;0.005291959;-0.004734039;0.015234441;;;
7;03:36:16:862;0.004540026;0.004233567;-0.003787041;0.00727163;;;
7;03:36:16:872;0.003632024;0.003386853;-0.018352509;0.019012547;;;
7;03:36:16:883;0.002905622;-0.004951961;-0.022343636;0.023069517;;;
7;03:36:16:894;0.002324499;0.003699878;-0.002552033;0.005060164;;;
7;03:36:16:905;0.001859598;0.002959902;0.028604507;0.028817304;;;
7;03:36:16:915;0.00148768;0.002367921;0.00756073;0.00806132;;;
7;03:36:16:926;-0.006471299;-0.013428554;-0.009274483;0.01755619;;;
7;03:36:16:937;0.003519811;-0.002465121;0.003257752;0.00539248;;;
7;03:36:16:948;0.00281585;-0.001972098;0.017929077;0.018255684;;;
7;03:36:16:959;-0.005408764;-0.001577679;-9.79E-04;0.00571866;;;
7;03:36:16:970;0.003334433;-0.001262143;-0.008444786;0.009166562;;;
7;03:36:16:981;-0.004993901;-0.001009714;0.008566856;0.009967427;;;
7;03:36:16:991;0.003666326;0.006853676;-0.008469582;0.011495591;;;
7;03:36:17:002;0.002933063;-0.002178505;-0.006775856;0.007698114;;;
7;03:36:17:012;0.002346449;0.005918643;0.002241135;0.006749728;;;
7;03:36:17:022;0.009538606;0.012396358;0.017115593;0.023186164;;;
7;03:36:17:033;-3.06E-05;0.017578533;0.006031036;0.01858438;;;
7;03:36:17:042;-0.007685892;0.006401382;-0.010498047;0.014500332;;;
7;03:36:17:052;0.001512729;0.005121104;-0.016059875;0.016924351;;;
7;03:36:17:063;-0.020483904;-0.008980807;0.003511429;0.022640126;;;
7;03:36:17:072;-0.020483904;-0.008980807;0.003511429;0.022640126;;;
7;03:36:17:083;-8.51E-04;-0.01340916;-0.005414009;0.014485922;;;
7;03:36:17:094;0.006980337;-0.003065884;-0.011992455;0.01421069;;;
7;03:36:17:103;0.00558427;0.02053163;0.12831211;0.130064336;;;
7;03:36:17:114;0.00446742;0.001102412;-0.012271881;0.01310619;;;
7;03:36:17:124;-0.004087508;0.016204821;-0.048124313;0.050943631;;;
7;03:36:17:135;0.004391439;-0.01002048;-0.030838013;0.032721213;;;
7;03:36:17:144;0.00351315;-3.55E-04;0.013636589;0.014086333;;;
7;03:36:17:154;0.002810523;-2.84E-04;0.003248215;0.004304714;;;
7;03:36:17:164;0.002248421;-2.27E-04;-0.020385742;0.020510619;;;
7;03:36:17:175;0.001798742;-0.015504617;-0.016308784;0.022574433;;;
;;7.1852646;;;;;;
