 counter ; timestamp ; amplitude ; accx ; accy ; accz ; magx ; magy ; magz ; gyrx ; gyry ; gyrz ; temp ; act state
1;1521885241;1988;65164;65117;16356;65288;2341;62879;77;65444;65491;0;0
2;1521885241;2443;65158;65123;16353;65288;2341;62879;101;65439;65512;0;0
3;1521885241;2157;65162;65111;16342;65277;2318;62887;90;65446;65499;0;0
4;1521885241;1978;65181;65113;16267;65277;2318;62887;50;65443;65491;0;0
5;1521885241;2069;65206;65106;16302;65271;2332;62923;66;65444;65520;0;0
6;1521885241;1892;65187;65124;16362;65271;2332;62923;89;65450;65497;0;0
7;1521885241;2783;65192;65102;16361;65268;2348;62902;75;65423;65477;0;0
8;1521885241;2867;65205;65107;16346;65268;2348;62902;56;65444;65501;0;0
9;1521885241;2241;65220;65105;16327;65268;2348;62902;61;65456;65534;0;0
10;1521885241;2129;65213;65077;16318;65285;2315;62862;70;65435;65532;0;0
11;1521885241;1926;65241;65074;16328;65285;2315;62862;59;65452;65505;0;0
12;1521885241;2123;65223;65088;16337;65306;2351;62906;53;65424;65504;0;0
13;1521885241;1850;65238;65085;16293;65306;2351;62906;68;65425;65511;0;0
14;1521885241;2693;65227;65076;16328;65306;2351;62906;59;65437;65491;0;0
15;1521885241;3060;65223;65082;16309;65264;2338;62932;90;65438;65520;0;0
16;1521885241;2212;65214;65103;16312;65264;2338;62932;59;65440;65522;0;0
17;1521885241;2308;65224;65104;16327;65266;2344;62913;89;65463;65504;0;0
18;1521885241;1916;65226;65086;16311;65266;2344;62913;46;65446;65518;0;0
19;1521885241;2136;65229;65086;16309;65266;2344;62900;34;65433;65501;0;0
20;1521885241;2007;65229;65102;16313;65271;2340;62900;57;65421;65490;0;0
21;1521885241;2470;65197;65093;16287;65271;2340;62900;69;65442;65496;0;0
22;1521885241;2929;65211;65106;16301;65301;2349;62905;63;65412;65487;0;0
23;1521885241;2162;65178;65107;16302;65301;2349;62905;87;65446;65490;0;0
24;1521885241;2121;65193;65099;16313;65276;2346;62891;67;65424;65509;0;0
25;1521885241;1914;65180;65099;16329;65276;2346;62891;69;65435;65508;0;0
26;1521885241;2135;65168;65122;16333;65276;2346;62941;73;65451;65476;0;0
27;1521885241;2026;65166;65113;16304;65296;2355;62941;97;65455;65514;0;0
28;1521885241;2459;65155;65102;16318;65296;2355;62941;95;65459;65489;0;0
29;1521885241;3050;65175;65108;16294;65288;2319;62896;70;65450;65495;0;0
30;1521885241;2189;65189;65116;16299;65288;2319;62896;76;65454;65509;0;0
31;1521885241;2148;65174;65122;16325;65272;2369;62874;78;65464;65497;0;0
32;1521885241;1866;65162;65129;16298;65272;2369;62874;96;65438;65502;0;0
33;1521885241;1952;65156;65121;16294;65272;2369;62874;87;65450;65486;0;0
34;1521885241;2040;65161;65123;16309;65310;2364;62900;86;65455;65522;0;0
35;1521885241;2474;65149;65113;16288;65310;2364;62900;60;65432;65497;0;0
36;1521885241;3075;65176;65139;16279;65273;2342;62896;68;65434;65519;0;0
37;1521885241;2202;65163;65107;16303;65273;2342;62896;72;65443;65495;0;0
38;1521885241;2170;65171;65106;16272;65283;2347;62918;49;65446;65504;0;0
39;1521885241;1860;65172;65125;16275;65283;2347;62918;79;65448;65500;0;0
40;1521885241;1936;65187;65117;16329;65283;2347;62918;96;65440;65487;0;0
41;1521885241;2057;65182;65090;16306;65291;2359;62940;93;65415;65502;0;0
42;1521885241;2491;65200;65099;16323;65291;2359;62940;76;65462;65497;0;0
43;1521885241;3113;65195;65083;16333;65283;2325;62886;81;65419;65496;0;0
44;1521885241;2177;65217;65074;16251;65283;2325;62886;84;65447;65495;0;0
45;1521885241;2249;65214;65099;16306;65283;2325;62886;83;65451;65503;0;0
46;1521885241;2059;65191;65092;16387;65282;2350;62886;103;65441;65524;0;0
47;1521885241;1937;65208;65089;16366;65282;2350;62886;83;65456;65483;0;0
48;1521885241;2616;65237;65097;16264;65279;2318;62928;74;65450;65503;0;0
49;1521885241;2963;65226;65082;16332;65279;2318;62928;58;65452;65520;0;0
50;1521885241;2432;65219;65089;16312;65278;2354;62948;77;65431;65513;0;0
51;1521885241;1934;65202;65074;16300;65278;2354;62948;101;65427;65503;0;0
52;1521885241;1971;65231;65094;16328;65278;2354;62948;60;65468;65512;0;0
53;1521885241;2060;65224;65093;16311;65287;2323;62944;50;65434;65505;0;0
54;1521885241;1906;65220;65093;16290;65287;2323;62944;63;65452;65475;0;0
55;1521885241;1998;65204;65093;16287;65312;2317;62914;112;65434;65503;0;0
56;1521885241;2241;65202;65107;16306;65312;2317;62914;65;65452;65533;0;0
57;1521885241;3142;65198;65096;16347;65312;2317;62914;69;65429;65488;0;0
58;1521885241;2340;65166;65087;16294;65277;2354;62934;84;65444;65508;0;0
59;1521885241;1995;65195;65121;16297;65277;2354;62934;91;65452;65504;0;0
60;1521885241;2086;65182;65122;16325;65279;2346;62909;66;65448;65484;0;0
61;1521885241;1911;65168;65103;16329;65279;2346;62909;73;65456;65506;0;0
62;1521885241;2590;65145;65113;16319;65300;2324;62893;92;65443;65523;0;0
63;1521885241;2872;65162;65111;16387;65300;2324;62893;96;65430;65503;0;0
64;1521885241;2243;65158;65094;16356;65300;2324;62893;66;65438;65483;0;0
65;1521885241;2107;65172;65107;16326;65297;2351;62935;63;65468;65521;0;0
66;1521885241;1934;65147;65111;16335;65297;2351;62935;53;65440;65505;0;0
67;1521885241;2080;65137;65110;16285;65298;2313;62910;79;65435;65498;0;0
68;1521885241;1879;65179;65112;16300;65298;2313;62910;77;65422;65506;0;0
69;1521885241;2677;65187;65116;16289;65298;2313;62941;80;65444;65478;0;0
70;1521885241;3061;65181;65109;16293;65317;2343;62941;75;65435;65509;0;0
71;1521885241;2232;65207;65127;16336;65317;2343;62941;74;65448;65510;0;0
72;1521885241;2147;65183;65135;16337;65307;2366;62900;75;65426;65502;0;0
73;1521885241;1919;65178;65122;16291;65307;2366;62900;52;65457;65502;0;0
74;1521885241;2122;65198;65117;16305;65306;2337;62885;65;65457;65502;0;0
75;1521885241;1860;65201;65115;16350;65306;2337;62885;88;65446;65492;0;0
76;1521885241;2491;65218;65103;16299;65306;2337;62885;90;65428;65490;0;0
77;1521885241;3064;65221;65106;16317;65298;2342;62928;98;65443;65512;0;0
78;1521885241;2219;65198;65097;16325;65298;2342;62928;77;65435;65484;0;0
79;1521885241;2140;65214;65103;16268;65288;2352;62896;73;65432;65495;0;0
80;1521885241;1881;65228;65085;16303;65288;2352;62896;82;65447;65510;0;0
81;1521885241;2142;65203;65097;16299;65288;2352;62896;111;65429;65488;0;0
82;1521885241;2023;65208;65099;16288;65281;2320;62951;77;65460;65495;0;0
83;1521885241;2424;65226;65097;16329;65281;2320;62951;74;65449;65493;0;0
84;1521885241;3091;65214;65088;16315;65288;2325;62907;57;65450;65507;0;0
85;1521885241;2220;65230;65117;16288;65288;2325;62907;78;65491;65499;0;0
86;1521885241;2199;65194;65113;16355;65273;2341;62907;90;65431;65506;0;0
87;1521885241;1872;65184;65092;16340;65273;2341;62907;94;65481;65508;0;0
88;1521885241;1956;65213;65087;16287;65273;2341;62907;58;65434;65503;0;0
89;1521885241;2081;65209;65098;16327;65261;2322;62926;89;65476;65523;0;0
90;1521885241;2492;65195;65099;16324;65261;2322;62926;83;65419;65485;0;0
91;1521885241;3120;65184;65102;16300;65285;2358;62936;51;65427;65501;0;0
92;1521885241;2190;65172;65102;16316;65285;2358;62936;64;65437;65506;0;0
93;1521885241;2232;65166;65105;16296;65285;2358;62936;83;65443;65496;0;0
94;1521885241;2054;65177;65098;16277;65289;2319;62928;73;65455;65513;0;0
95;1521885241;1921;65161;65105;16298;65289;2319;62928;78;65450;65489;0;0
96;1521885241;2070;65161;65096;16326;65281;2332;62914;85;65422;65479;0;0
97;1521885241;2496;65163;65086;16344;65281;2332;62914;90;65459;65485;0;0
98;1521885241;3146;65175;65104;16305;65288;2308;62921;61;65448;65525;0;0
99;1521885241;2211;65162;65104;16294;65288;2308;62921;77;65446;65504;0;0
100;1521885241;2039;65174;65121;16302;65288;2308;62921;71;65455;65521;0;0
101;1521885241;2085;65157;65127;16340;65266;2280;62938;81;65440;65508;0;0
102;1521885241;1922;65152;65116;16313;65266;2280;62938;61;65419;65528;0;0
103;1521885241;2096;65158;65115;16289;65290;2313;62944;77;65457;65505;0;0
104;1521885241;2437;65169;65104;16299;65290;2313;62944;96;65453;65505;0;0
105;1521885241;3159;65198;65090;16280;65290;2057;62923;88;65421;65521;0;0
106;1521885241;2314;65180;65111;16301;65295;2297;62923;55;65433;65511;0;0
107;1521885241;2016;65174;65098;16324;65295;2297;62923;72;65449;65525;0;0
108;1521885241;2068;65186;65097;16287;65251;2331;62928;69;65449;65492;0;0
109;1521885241;1894;65207;65111;16309;65251;2331;62928;81;65445;65496;0;0
110;1521885241;2134;65196;65084;16336;65274;2341;62931;64;65455;65515;0;0
111;1521885241;2401;65227;65088;16325;65274;2341;62931;55;65447;65486;0;0
112;1521885241;2987;65212;65108;16346;65274;2341;62931;74;65427;65510;0;0
113;1521885241;2331;65198;65095;16350;65266;2311;62949;90;65451;65513;0;0
114;1521885241;1999;65219;65087;16308;65266;2311;62949;98;65437;65510;0;0
115;1521885241;2078;65221;65101;16346;65284;2344;62910;111;65477;65512;0;0
116;1521885241;1897;65224;65084;16326;65284;2344;62910;111;65442;65503;0;0
117;1521885241;2593;65189;65086;16331;65296;2345;62957;91;65437;65485;0;0
118;1521885241;2865;65202;65102;16315;65296;2345;62957;96;65477;65487;0;0
119;1521885241;2244;65214;65099;16289;65296;2345;62957;86;65462;65506;0;0
120;1521885241;2128;65220;65105;16267;65285;2342;62928;66;65438;65517;0;0
121;1521885241;1930;65220;65106;16308;65285;2342;62928;68;65435;65474;0;0
122;1521885241;2117;65201;65089;16313;65311;2336;62933;28;65432;65509;0;0
123;1521885241;1855;65200;65092;16273;65311;2336;62933;87;65437;65516;0;0
124;1521885241;2698;65195;65103;16301;65311;2336;62933;77;65442;65511;0;0
125;1521885241;3055;65218;65099;16292;65252;2322;62955;80;65433;65499;0;0
126;1521885241;2232;65207;65105;16339;65252;2322;62955;87;65447;65503;0;0
127;1521885241;2160;65172;65091;16349;65264;2383;62949;83;65439;65513;0;0
128;1521885241;1903;65179;65082;16316;65264;2383;62949;90;65428;65500;0;0
129;1521885241;2160;65201;65096;16316;65264;2383;62949;98;65437;65502;0;0
130;1521885241;2045;65183;65105;16351;65266;2372;62953;80;65438;65500;0;0
131;1521885241;2481;65184;65090;16283;65266;2372;62953;79;65458;65492;0;0
132;1521885241;3069;65193;65103;16292;65263;2317;62932;110;65474;65491;0;0
133;1521885241;2191;65160;65112;16292;65263;2317;62932;75;65447;65504;0;0
134;1521885241;2181;65157;65107;16238;65264;2341;62963;75;65460;65513;0;0
135;1521885241;1901;65200;65099;16232;65264;2341;62963;74;65448;65505;0;0
136;1521885241;1986;65175;65101;16312;65264;2341;62963;84;65460;65483;0;0
137;1521885241;2055;65173;65099;16347;65261;2329;62956;80;65467;65487;0;0
138;1521885241;2438;65193;65128;16399;65261;2329;62956;91;65444;65489;0;0
139;1521885241;3098;65192;65105;16388;65256;2333;62947;72;65459;65513;0;0
140;1521885241;2207;65214;65109;16336;65256;2333;62947;64;65459;65480;0;0
141;1521885241;2204;65209;65120;16382;65256;2333;62936;88;65457;65492;0;0
142;1521885241;2028;65180;65104;16331;65277;2324;62936;65;65447;65507;0;0
143;1521885241;1927;65197;65076;16289;65277;2324;62936;84;65443;65517;0;0
144;1521885241;2068;65206;65082;16324;65289;2334;62891;81;65445;65495;0;0
145;1521885241;2421;65213;65100;16301;65289;2334;62891;88;65437;65495;0;0
146;1521885241;3131;65220;65075;16307;65281;2354;62945;100;65453;65507;0;0
147;1521885241;2178;65219;65084;16335;65281;2354;62945;59;65465;65512;0;0
148;1521885241;2036;65200;65083;16312;65281;2354;62945;67;65435;65492;0;0
149;1521885241;2074;65210;65090;16276;65280;2348;62942;77;65438;65492;0;0
150;1521885241;1930;65219;65102;16316;65280;2348;62942;77;65452;65505;0;0
151;1521885241;2600;65220;65088;16266;65257;2371;62953;58;65446;65509;0;0
152;1521885241;2945;65229;65121;16248;65257;2371;62953;66;65455;65499;0;0
153;1521885241;2422;65201;65108;16277;65259;2357;62963;84;65454;65490;0;0
154;1521885241;1928;65199;65114;16225;65259;2357;62963;83;65445;65524;0;0
155;1521885241;1962;65199;65117;16272;65259;2357;62963;65;65455;65510;0;0
156;1521885241;2057;65193;65108;16309;65253;2353;62946;55;65450;65492;0;0
157;1521885241;1913;65189;65096;16314;65253;2353;62946;95;65440;65475;0;0
158;1521885241;2612;65199;65122;16327;65276;2354;62922;81;65441;65489;0;0
159;1521885241;2874;65194;65089;16301;65276;2354;62922;90;65451;65502;0;0
160;1521885241;2464;65198;65105;16288;65276;2354;62922;81;65436;65494;0;0
161;1521885241;2133;65187;65109;16303;65236;2345;62969;105;65460;65518;0;0
162;1521885241;1967;65180;65101;16347;65236;2345;62969;73;65468;65487;0;0
163;1521885241;2081;65173;65092;16311;65227;2401;62957;77;65445;65503;0;0
164;1521885241;1893;65176;65097;16314;65227;2401;62957;92;65450;65511;0;0
165;1521885241;2608;65176;65119;16332;65229;2354;62944;72;65447;65483;0;0
166;1521885241;2862;65182;65099;16302;65229;2354;62944;99;65445;65494;0;0
167;1521885241;2236;65171;65109;16349;65229;2354;62944;78;65439;65509;0;0
168;1521885241;2114;65164;65126;16317;65245;2378;62936;75;65449;65490;0;0
169;1521885241;1937;65176;65116;16279;65245;2378;62936;68;65458;65479;0;0
170;1521885241;2114;65196;65114;16302;65245;2363;62917;86;65447;65501;0;0
171;1521885241;1851;65174;65120;16308;65245;2363;62917;72;65437;65490;0;0
172;1521885241;2625;65183;65114;16317;65245;2363;62917;49;65457;65507;0;0
173;1521885241;3050;65193;65098;16341;65265;2342;62902;66;65457;65519;0;0
174;1521885241;2239;65195;65101;16314;65265;2342;62902;92;65437;65524;0;0
175;1521885241;2150;65194;65097;16321;65286;2350;62952;74;65416;65504;0;0
176;1521885241;1916;65211;65082;16327;65286;2350;62952;98;65419;65518;0;0
177;1521885241;2146;65206;65082;16351;65286;2350;62965;87;65424;65497;0;0
178;1521885241;2021;65204;65079;16305;65264;2365;62965;70;65423;65518;0;0
179;1521885241;2468;65207;65064;16337;65264;2365;62965;76;65445;65490;0;0
180;1521885241;3081;65206;65077;16303;65272;2342;62952;82;65454;65513;0;0
181;1521885241;2215;65198;65081;16298;65272;2342;62952;73;65436;65500;0;0
182;1521885241;2164;65204;65094;16308;65296;2381;62975;89;65425;65504;0;0
183;1521885241;1889;65212;65097;16297;65296;2381;62975;81;65448;65491;0;0
184;1521885241;1972;65230;65106;16324;65296;2381;62975;69;65431;65490;0;0
185;1521885241;2060;65215;65120;16340;65299;2354;62956;89;65447;65481;0;0
186;1521885241;2468;65204;65097;16299;65299;2354;62956;102;65417;65489;0;0
187;1521885241;3086;65220;65111;16336;65272;2331;62969;95;65432;65506;0;0
188;1521885241;2197;65206;65104;16332;65272;2331;62969;75;65424;65522;0;0
189;1521885241;2196;65180;65090;16299;65281;2329;62950;71;65481;65504;0;0
190;1521885241;1862;65204;65099;16294;65281;2329;62950;63;65460;65486;0;0
191;1521885241;1955;65181;65109;16334;65281;2329;62950;77;65417;65480;0;0
192;1521885241;2606;65180;65095;16358;65284;2350;62971;67;65407;65503;0;0
193;1521885241;2963;65163;65093;16332;65284;2350;62971;87;65443;65499;0;0
194;1521885241;2379;65164;65092;16355;65278;2338;62947;66;65459;65483;0;0
195;1521885241;1960;65172;65094;16311;65278;2338;62947;80;65445;65531;0;0
196;1521885241;2162;65204;65107;16303;65278;2338;62947;98;65453;65513;0;0
197;1521885241;2059;65183;65117;16339;65299;2360;62928;82;65450;65518;0;0
198;1521885241;1962;65182;65102;16295;65299;2360;62928;94;65440;65518;0;0
199;1521885241;2630;65185;65115;16292;65279;2364;62909;94;65455;65488;0;0
200;1521885241;2968;65181;65102;16293;65279;2364;62909;108;65455;65489;0;0
201;1521885241;2421;65174;65105;16295;65283;2350;62903;99;65460;65477;0;0
202;1521885241;1924;65173;65126;16309;65283;2350;62903;105;65470;65495;0;0
203;1521885241;1968;65152;65096;16356;65283;2350;62903;109;65450;65502;0;0
204;1521885241;2033;65174;65117;16324;65284;2335;62901;93;65451;65483;0;0
205;1521885241;1900;65182;65116;16339;65284;2335;62901;60;65441;65509;0;0
206;1521885241;2635;65194;65095;16336;65265;2344;62921;84;65421;65455;0;0
207;1521885241;2922;65205;65092;16340;65265;2344;62921;86;65420;65494;0;0
208;1521885241;2435;65207;65093;16356;65265;2344;62921;64;65458;65490;0;0
209;1521885241;2121;65177;65082;16335;65264;2315;62909;59;65474;65499;0;0
210;1521885241;1964;65194;65096;16307;65264;2315;62909;62;65444;65497;0;0
211;1521885241;2084;65213;65101;16307;65239;2353;62906;74;65436;65477;0;0
212;1521885241;1896;65205;65100;16294;65239;2353;62906;95;65425;65534;0;0
213;1521885241;2667;65222;65099;16292;65265;2335;62890;68;65454;65511;0;0
214;1521885241;2895;65217;65101;16298;65265;2335;62890;79;65447;65498;0;0
215;1521885241;2241;65215;65103;16240;65265;2335;62890;62;65438;65521;0;0
216;1521885241;2115;65233;65088;16281;65254;2321;62904;66;65431;65523;0;0
217;1521885241;1940;65227;65106;16302;65254;2321;62904;56;65451;65495;0;0
218;1521885241;2109;65217;65101;16303;65240;2315;62911;70;65459;65501;0;0
219;1521885241;1868;65221;65098;16295;65240;2315;62911;108;65438;65535;0;0
220;1521885241;2618;65205;65097;16304;65240;2334;62891;80;65445;65478;0;0
221;1521885241;2948;65207;65091;16302;65264;2334;62891;67;65431;65466;0;0
222;1521885241;2240;65205;65095;16337;65264;2334;62891;92;65439;65485;0;0
223;1521885241;2154;65191;65092;16342;65250;2305;62910;67;65464;65499;0;0
224;1521885241;1921;65169;65102;16305;65250;2305;62910;121;65414;65500;0;0
225;1521885241;2133;65187;65109;16303;65252;2297;62892;94;65455;65472;0;0
226;1521885241;2384;65170;65088;16315;65252;2297;62892;104;65441;65491;0;0
227;1521885241;2973;65198;65097;16281;65252;2297;62892;89;65452;65514;0;0
228;1521885241;2338;65170;65105;16314;65251;2328;62940;106;65441;65486;0;0
229;1521885241;2002;65155;65106;16329;65251;2328;62940;106;65450;65497;0;0
230;1521885241;2091;65171;65112;16293;65275;2322;62937;55;65420;65497;0;0
231;1521885241;1865;65176;65127;16351;65275;2322;62937;80;65446;65496;0;0
232;1521885241;2144;65183;65107;16325;65275;2322;62937;92;65446;65524;0;0
233;1521885241;2442;65181;65112;16312;65272;2336;62901;73;65471;65526;0;0
234;1521885241;2984;65179;65121;16383;65272;2336;62901;89;65433;65497;0;0
235;1521885241;2374;65173;65102;16295;65246;2341;62902;78;65434;65512;0;0
236;1521885241;2009;65182;65115;16296;65246;2341;62902;96;65424;65504;0;0
237;1521885241;2141;65184;65122;16327;65260;2332;62883;109;65425;65489;0;0
238;1521885241;1867;65190;65118;16293;65260;2332;62883;56;65435;65499;0;0
239;1521885241;1967;65185;65094;16292;65260;2332;62883;54;65444;65499;0;0
240;1521885242;2762;65197;65087;16291;65249;2333;62927;84;65443;65502;0;0
241;1521885242;2997;65206;65086;16289;65249;2333;62927;56;65449;65509;0;0
242;1521885242;2379;65200;65091;16300;65212;2340;62885;67;65440;65524;0;0
243;1521885242;1978;65189;65108;16328;65212;2340;62885;61;65460;65488;0;0
244;1521885242;2142;65188;65113;16292;65212;2340;62885;69;65431;65526;0;0
245;1521885242;2039;65214;65099;16302;65254;2328;62872;84;65448;65514;0;0
246;1521885242;1947;65219;65092;16305;65254;2328;62872;76;65442;65488;0;0
247;1521885242;2621;65217;65078;16321;65268;2347;62937;79;65447;65486;0;0
248;1521885242;2953;65216;65093;16324;65268;2347;62937;84;65459;65504;0;0
249;1521885242;2406;65202;65101;16308;65263;2339;62923;99;65447;65492;0;0
250;1521885242;1954;65208;65090;16255;65263;2339;62923;75;65461;65478;0;0
251;1521885242;1986;65200;65094;16272;65263;2339;62923;60;65437;65491;0;0
252;1521885242;2054;65194;65113;16292;65239;2322;62933;65;65446;65496;0;0
253;1521885242;1920;65197;65100;16301;65239;2322;62933;75;65443;65498;0;0
254;1521885242;2610;65196;65095;16348;65254;2332;62964;85;65468;65482;0;0
255;1521885242;2935;65202;65092;16305;65254;2332;62964;73;65446;65495;0;0
256;1521885242;2440;65224;65100;16293;65254;2329;62950;86;65463;65526;0;0
257;1521885242;1953;65198;65106;16298;65245;2329;62950;78;65463;65513;0;0
258;1521885242;1944;65192;65084;16307;65245;2329;62950;116;65415;65501;0;0
259;1521885242;2066;65197;65100;16294;65278;2337;62938;92;65424;65513;0;0
260;1521885242;1903;65188;65096;16351;65278;2337;62938;78;65440;65510;0;0
261;1521885242;2607;65178;65089;16342;65273;2337;62930;87;65456;65497;0;0
262;1521885242;1957;65176;65107;16326;65254;2340;62925;76;65434;65512;0;0
263;1521885242;2071;65175;65122;16317;65266;2362;62958;49;65458;65526;0;0
264;1521885242;1915;65169;65108;16303;65266;2362;62958;62;65439;65504;0;0
265;1521885242;2126;65174;65121;16290;65253;2351;62943;83;65455;65495;0;0
266;1521885242;1855;65169;65119;16329;65253;2351;62943;78;65454;65495;0;0
267;1521885242;2615;65212;65109;16294;65253;2351;62943;43;65428;65481;0;0
268;1521885242;3074;65190;65108;16327;65268;2349;62927;66;65445;65488;0;0
269;1521885242;2240;65179;65116;16318;65268;2349;62927;88;65447;65479;0;0
270;1521885242;2160;65195;65100;16286;65240;2360;62915;92;65424;65516;0;0
271;1521885242;1908;65180;65111;16302;65240;2360;62915;90;65431;65510;0;0
272;1521885242;2163;65197;65092;16299;65240;2360;62915;112;65448;65494;0;0
273;1521885242;2047;65198;65096;16295;65252;2377;62932;74;65443;65504;0;0
274;1521885242;2395;65224;65111;16320;65252;2377;62932;47;65452;65512;0;0
275;1521885242;3054;65216;65089;16314;65283;2337;62921;70;65435;65482;0;0
276;1521885242;2214;65226;65094;16292;65283;2337;62921;79;65444;65488;0;0
277;1521885242;2174;65210;65091;16301;65261;2351;62922;90;65463;65481;0;0
278;1521885242;1873;65203;65082;16331;65261;2351;62922;60;65441;65505;0;0
279;1521885242;1954;65203;65080;16295;65261;2351;62922;83;65436;65495;0;0
280;1521885242;2051;65227;65101;16331;65253;2339;62872;85;65434;65471;0;0
281;1521885242;2417;65220;65106;16321;65253;2339;62872;93;65436;65493;0;0
282;1521885242;3093;65231;65099;16293;65241;2328;62868;74;65440;65504;0;0
283;1521885242;2189;65222;65086;16331;65241;2328;62868;91;65456;65507;0;0
284;1521885242;2225;65196;65074;16301;65241;2328;62900;85;65440;65525;0;0
285;1521885242;2049;65207;65094;16271;65257;2352;62900;83;65458;65504;0;0
286;1521885242;1951;65206;65103;16298;65257;2352;62900;54;65439;65493;0;0
287;1521885242;2078;65200;65098;16295;65271;2358;62902;64;65455;65492;0;0
288;1521885242;2496;65195;65102;16341;65271;2358;62902;91;65436;65506;0;0
289;1521885242;3131;65191;65105;16316;65291;2352;62915;102;65432;65519;0;0
290;1521885242;2167;65211;65094;16301;65291;2352;62915;75;65455;65516;0;0
291;1521885242;2037;65198;65106;16333;65291;2352;62915;70;65434;65508;0;0
292;1521885242;2058;65192;65101;16344;65283;2335;62896;59;65464;65508;0;0
293;1521885242;1937;65194;65108;16330;65283;2335;62896;57;65455;65497;0;0
294;1521885242;2097;65200;65105;16310;65251;2370;62876;90;65447;65495;0;0
295;1521885242;2493;65183;65098;16329;65251;2370;62876;77;65438;65513;0;0
296;1521885242;3169;65175;65105;16256;65253;2353;62905;71;65435;65520;0;0
297;1521885242;2149;65203;65110;16281;65253;2353;62905;49;65451;65521;0;0
298;1521885242;2019;65162;65114;16349;65253;2353;62905;57;65451;65504;0;0
299;1521885242;2058;65172;65108;16310;65237;2363;62915;39;65449;65510;0;0
300;1521885242;1893;65191;65112;16321;65237;2363;62915;101;65425;65523;0;0
301;1521885242;2623;65188;65100;16340;65250;2329;62927;103;65460;65486;0;0
302;1521885242;2879;65172;65104;16279;65250;2329;62927;82;65430;65507;0;0
303;1521885242;2394;65190;65111;16322;65250;2329;62927;106;65456;65513;0;0
304;1521885242;2100;65177;65102;16306;65258;2351;62894;66;65455;65491;0;0
305;1521885242;1925;65175;65111;16262;65258;2351;62894;100;65449;65491;0;0
306;1521885242;2072;65189;65113;16317;65275;2348;62882;82;65450;65494;0;0
307;1521885242;1898;65176;65114;16317;65275;2348;62882;77;65440;65496;0;0
308;1521885242;2656;65183;65087;16321;65248;2365;62868;62;65447;65531;0;0
309;1521885242;2871;65193;65092;16334;65248;2365;62868;53;65438;65519;0;0
310;1521885242;2226;65187;65082;16325;65248;2365;62868;58;65445;65490;0;0
311;1521885242;2107;65204;65075;16295;65292;2364;62871;92;65440;65501;0;0
312;1521885242;1937;65232;65092;16322;65292;2364;62871;69;65434;65476;0;0
313;1521885242;2098;65206;65067;16336;65254;2355;62898;72;65440;65506;0;0
314;1521885242;1868;65234;65073;16293;65254;2355;62898;55;65446;65480;0;0
315;1521885242;2689;65235;65091;16310;65254;2355;62898;70;65436;65509;0;0
316;1521885242;3063;65217;65085;16288;65286;2383;62913;75;65430;6;0;0
317;1521885242;2242;65230;65100;16308;65286;2383;62913;69;65445;65493;0;0
318;1521885242;2161;65200;65100;16333;65254;2384;62879;81;65459;65514;0;0
319;1521885242;1914;65184;65093;16312;65254;2384;62879;107;65434;65473;0;0
320;1521885242;2125;65215;65096;16352;65254;2384;62927;65;65428;65506;0;0
321;1521885242;2039;65191;65099;16339;65237;2359;62927;90;65443;65498;0;0
322;1521885242;2502;65207;65101;16314;65237;2359;62927;74;65431;65520;0;0
323;1521885242;3066;65198;65104;16332;65252;2358;62941;94;65439;65486;0;0
324;1521885242;2209;65181;65102;16358;65252;2358;62941;71;65456;65490;0;0
325;1521885242;2181;65199;65091;16289;65228;2339;62913;69;65447;65493;0;0
326;1521885242;1883;65200;65110;16311;65228;2339;62913;65;65447;65524;0;0
327;1521885242;1961;65163;65116;16331;65228;2339;62913;67;65446;65502;0;0
328;1521885242;2038;65173;65104;16294;65274;2373;62900;72;65461;65497;0;0
329;1521885242;2425;65183;65115;16316;65274;2373;62900;80;65444;65494;0;0
330;1521885242;3075;65179;65103;16297;65272;2323;62867;81;65433;65510;0;0
331;1521885242;2191;65181;65120;16269;65272;2323;62867;86;65443;65522;0;0
332;1521885242;2219;65175;65118;16313;65274;2327;62904;70;65436;65485;0;0
333;1521885242;1866;65161;65125;16311;65274;2327;62904;63;65450;65493;0;0
334;1521885242;1959;65180;65096;16245;65274;2327;62904;79;65455;65503;0;0
335;1521885242;2066;65195;65103;16288;65266;2322;62929;111;65461;65479;0;0
336;1521885242;2443;65182;65107;16317;65266;2322;62929;97;65458;65504;0;0
337;1521885242;1940;65183;65105;16295;65261;2330;62906;77;65443;65511;0;0
338;1521885242;2219;65193;65083;16309;65261;2330;62906;82;65423;65506;0;0
339;1521885242;2207;65197;65098;16324;65261;2330;62906;78;65430;65485;0;0
340;1521885242;2049;65211;65094;16307;65230;2348;62887;83;65454;65493;0;0
341;1521885242;1926;65212;65100;16354;65230;2348;62887;73;65434;65491;0;0
342;1521885242;2634;65223;65094;16320;65247;2345;62890;86;65436;65501;0;0
343;1521885242;2968;65219;65095;16298;65247;2345;62890;95;65451;65493;0;0
344;1521885242;2400;65213;65094;16352;65241;2331;62887;77;65432;65511;0;0
345;1521885242;1936;65199;65095;16348;65241;2331;62887;78;65452;65508;0;0
346;1521885242;1967;65207;65093;16305;65241;2331;62887;56;65423;65501;0;0
347;1521885242;2076;65206;65101;16322;65258;2318;62917;90;65452;65504;0;0
348;1521885242;1929;65196;65103;16295;65258;2318;62917;63;65425;65521;0;0
349;1521885242;2638;65215;65090;16296;65234;2338;62884;87;65443;65508;0;0
350;1521885242;2918;65206;65090;16287;65234;2338;62884;111;65423;65487;0;0
351;1521885242;2431;65209;65098;16262;65234;2338;62884;77;65445;65499;0;0
352;1521885242;2104;65212;65096;16273;65259;2350;62882;75;65428;65492;0;0
353;1521885242;1955;65188;65106;16301;65259;2350;62882;83;65436;65483;0;0
354;1521885242;2062;65192;65104;16296;65246;2374;62919;60;65434;65489;0;0
355;1521885242;1920;65198;65105;16305;65246;2374;62919;76;65443;65509;0;0
356;1521885242;2633;65202;65096;16294;65270;2340;62916;84;65443;65493;0;0
357;1521885242;2884;65188;65093;16303;65270;2340;62916;81;65455;65515;0;0
358;1521885242;2276;65229;65119;16323;65270;2340;62916;45;65458;65504;0;0
359;1521885242;2111;65206;65102;16358;65254;2332;62911;86;65439;65529;0;0
360;1521885242;1925;65190;65084;16351;65254;2332;62911;86;65442;65488;0;0
361;1521885242;2106;65190;65103;16308;65248;2354;62895;69;65430;65513;0;0
362;1521885242;1858;65182;65107;16375;65248;2354;62895;64;65416;65506;0;0
363;1521885242;2661;65177;65098;16342;65248;2354;62889;64;65441;65481;0;0
364;1521885242;3062;65172;65102;16307;65260;2374;62889;64;65451;65495;0;0
365;1521885242;2238;65168;65111;16306;65260;2374;62889;75;65447;65503;0;0
366;1521885242;2120;65185;65095;16256;65283;2382;62935;87;65447;65513;0;0
367;1521885242;1930;65184;65120;16291;65283;2382;62935;90;65443;65506;0;0
368;1521885242;2126;65171;65113;16285;65269;2367;62926;98;65430;65478;0;0
369;1521885242;1863;65174;65109;16279;65269;2367;62926;74;65418;65475;0;0
370;1521885242;2503;65191;65111;16335;65269;2367;62926;78;65464;65493;0;0
371;1521885242;3068;65171;65094;16339;65282;2369;62938;104;65455;65496;0;0
372;1521885242;2204;65190;65108;16302;65282;2369;62938;81;65422;65488;0;0
373;1521885242;2171;65204;65118;16359;65288;2358;62905;82;65416;65513;0;0
374;1521885242;1895;65188;65094;16346;65288;2358;62905;88;65435;65485;0;0
375;1521885242;2111;65209;65088;16311;65288;2358;62905;93;65454;65491;0;0
376;1521885242;2432;65210;65083;16352;65273;2377;62918;95;65434;65496;0;0
377;1521885242;2985;65214;65075;16318;65273;2377;62918;70;65455;65512;0;0
378;1521885242;2373;65216;65079;16325;65263;2390;62928;81;65444;65498;0;0
379;1521885242;1993;65204;65091;16348;65263;2390;62928;83;65437;65482;0;0
380;1521885242;2126;65193;65088;16261;65269;2381;62914;56;65429;65498;0;0
381;1521885242;1864;65208;65080;16294;65269;2381;62914;71;65451;65516;0;0
382;1521885242;1959;65190;65101;16307;65269;2381;62914;67;65454;65489;0;0
383;1521885242;2596;65219;65121;16323;65285;2353;62923;95;65456;65501;0;0
384;1521885242;2970;65208;65118;16335;65285;2353;62923;90;65449;65510;0;0
385;1521885242;2386;65173;65127;16297;65267;2388;62938;58;65459;65500;0;0
386;1521885242;1966;65186;65116;16293;65267;2388;62938;78;65449;65499;0;0
387;1521885242;2152;65204;65120;16305;65267;2388;62938;85;65452;65493;0;0
388;1521885242;2035;65191;65112;16307;65265;2352;62934;75;65454;65485;0;0
389;1521885242;1940;65191;65113;16298;65265;2352;62934;66;65427;65483;0;0
390;1521885242;2578;65182;65105;16325;65285;2361;62917;41;65445;65487;0;0
391;1521885242;2932;65153;65084;16335;65285;2361;62917;65;65467;65531;0;0
392;1521885242;2393;65186;65094;16293;65276;2361;62900;63;65413;65501;0;0
393;1521885242;1960;65180;65091;16315;65276;2361;62900;109;65428;65490;0;0
394;1521885242;1987;65184;65096;16310;65276;2361;62900;61;65438;65490;0;0
395;1521885242;2065;65186;65093;16293;65286;2377;62890;75;65462;65489;0;0
396;1521885242;1940;65189;65105;16297;65286;2377;62890;97;65461;65499;0;0
397;1521885242;2642;65194;65106;16301;65257;2372;62909;91;65466;65455;0;0
398;1521885242;2940;65212;65111;16303;65257;2372;62909;56;65462;65501;0;0
399;1521885242;2427;65203;65114;16318;65257;2372;62939;56;65440;65478;0;0
400;1521885242;2085;65197;65118;16295;65258;2344;62939;115;65434;65496;0;0
401;1521885242;1954;65199;65113;16273;65258;2344;62939;95;65417;65506;0;0
402;1521885242;2056;65184;65109;16306;65264;2352;62915;70;65429;65503;0;0
403;1521885242;1899;65182;65103;16293;65264;2352;62915;70;65471;65495;0;0
404;1521885242;2645;65209;65105;16307;65256;2374;62873;55;65453;65486;0;0
405;1521885242;2898;65196;65113;16357;65256;2374;62873;86;65466;65478;0;0
406;1521885242;2247;65188;65099;16307;65256;2374;62873;111;65437;65528;0;0
407;1521885242;2122;65192;65107;16297;65295;2327;62880;56;65462;65504;0;0
408;1521885242;1953;65199;65104;16350;65295;2327;62880;73;65442;65507;0;0
409;1521885242;2101;65177;65080;16317;65283;2377;62921;54;65443;65483;0;0
410;1521885242;1892;65193;65076;16299;65283;2377;62921;58;65417;65508;0;0
411;1521885242;2660;65208;65094;16303;65250;2357;62921;103;65430;65491;0;0
412;1521885242;2854;65212;65085;16294;65250;2357;62921;111;65453;65490;0;0
413;1521885242;2233;65207;65088;16300;65250;2357;62921;85;65459;65518;0;0
414;1521885242;2110;65195;65099;16297;65263;2346;62904;78;65436;65496;0;0
415;1521885242;1896;65187;65105;16305;65263;2346;62904;67;65448;65526;0;0
416;1521885242;2107;65195;65114;16294;65271;2367;62922;62;65434;65503;0;0
417;1521885242;2455;65193;65099;16267;65271;2367;62922;70;65449;65480;0;0
418;1521885242;3178;65213;65102;16246;65271;2367;62922;79;65445;65509;0;0
419;1521885242;2333;65207;65104;16287;65285;2364;62907;84;65439;65508;0;0
420;1521885242;2010;65193;65097;16293;65285;2364;62907;85;65445;65481;0;0
421;1521885242;2090;65185;65092;16273;65277;2361;62901;81;65436;65496;0;0
422;1521885242;1873;65204;65090;16328;65277;2361;62901;81;65452;65499;0;0
423;1521885242;2126;65190;65092;16318;65277;2361;62901;77;65420;65500;0;0
424;1521885242;2454;65179;65095;16327;65278;2340;62911;80;65430;65486;0;0
425;1521885242;2974;65181;65097;16353;65278;2340;62911;99;65445;65503;0;0
426;1521885242;2327;65185;65093;16318;65284;2355;62922;61;65446;65502;0;0
427;1521885242;1981;65205;65087;16290;65284;2355;62922;68;65458;65494;0;0
428;1521885242;2098;65218;65102;16333;65288;2352;62925;99;65420;65492;0;0
429;1521885242;1850;65179;65107;16319;65288;2352;62925;76;65426;65521;0;0
430;1521885242;1924;65184;65096;16283;65288;2352;62925;93;65427;65522;0;0
431;1521885243;2643;65201;65095;16308;65258;2381;62907;89;65443;65498;0;0
432;1521885243;2985;65163;65098;16302;65258;2381;62907;96;65468;65499;0;0
433;1521885243;2368;65177;65104;16293;65262;2345;62920;59;65432;65487;0;0
434;1521885243;1956;65169;65119;16321;65262;2345;62920;72;65432;65505;0;0
435;1521885243;2137;65161;65104;16309;65262;2345;62931;81;65465;65523;0;0
436;1521885243;2006;65188;65095;16281;65297;2370;62931;83;65450;65506;0;0
437;1521885243;1928;65182;65095;16315;65297;2370;62931;85;65449;65502;0;0
438;1521885243;2575;65208;65105;16295;65272;2353;62934;51;65430;65505;0;0
439;1521885243;2933;65209;65101;16301;65272;2353;62934;81;65427;65499;0;0
440;1521885243;2371;65176;65090;16309;65308;2352;62935;79;65420;65483;0;0
441;1521885243;1928;65200;65082;16321;65308;2352;62935;78;65458;65498;0;0
442;1521885243;1952;65201;65092;16307;65308;2352;62935;75;65463;65487;0;0
443;1521885243;2031;65211;65093;16332;65279;2347;62929;46;65444;65501;0;0
444;1521885243;1928;65211;65104;16320;65279;2347;62929;89;65430;65510;0;0
445;1521885243;2561;65206;65105;16346;65266;2336;62912;78;65460;65480;0;0
446;1521885243;2900;65190;65102;16300;65266;2336;62912;62;65412;65493;0;0
447;1521885243;2406;65186;65106;16285;65260;2341;62915;90;65431;65523;0;0
448;1521885243;1892;65204;65117;16293;65260;2341;62915;77;65460;65494;0;0
449;1521885243;1957;65197;65098;16328;65260;2341;62915;64;65462;65494;0;0
450;1521885243;2032;65198;65087;16292;65258;2364;62890;90;65465;65511;0;0
451;1521885243;1908;65203;65115;16315;65258;2364;62890;80;65444;65514;0;0
452;1521885243;2657;65195;65094;16315;65222;2347;62920;55;65423;65489;0;0
453;1521885243;2894;65182;65088;16293;65222;2347;62920;72;65457;65518;0;0
454;1521885243;2422;65198;65100;16349;65222;2347;62920;68;65430;65484;0;0
455;1521885243;2132;65177;65097;16324;65258;2349;62926;97;65451;65497;0;0
456;1521885243;1936;65187;65102;16300;65258;2349;62926;70;65445;65502;0;0
457;1521885243;2080;65191;65110;16322;65267;2345;62897;110;65443;65502;0;0
458;1521885243;2494;65195;65108;16326;65267;2345;62897;72;65431;65503;0;0
459;1521885243;3145;65211;65107;16344;65266;2370;62916;87;65453;65472;0;0
460;1521885243;2152;65180;65107;16356;65266;2370;62916;84;65442;65524;0;0
461;1521885243;1978;65168;65086;16319;65266;2370;62916;61;65455;65496;0;0
462;1521885243;2052;65187;65099;16273;65270;2358;62949;55;65421;65510;0;0
463;1521885243;1900;65186;65105;16313;65270;2358;62949;92;65431;65476;0;0
464;1521885243;2085;65186;65121;16316;65269;2333;62918;86;65453;65480;0;0
465;1521885243;2461;65194;65117;16356;65269;2333;62918;80;65436;65487;0;0
466;1521885243;3160;65173;65116;16330;65269;2333;62918;76;65431;65502;0;0
467;1521885243;2341;65171;65095;16293;65286;2326;62908;68;65432;65491;0;0
468;1521885243;2005;65186;65097;16331;65286;2326;62908;79;65430;65499;0;0
469;1521885243;2086;65182;65098;16337;65264;2349;62940;79;65425;65487;0;0
470;1521885243;1902;65183;65078;16312;65264;2349;62940;72;65444;65504;0;0
471;1521885243;2131;65215;65101;16326;65264;2349;62905;82;65438;65483;0;0
472;1521885243;2456;65199;65095;16298;65292;2346;62905;81;65442;65486;0;0
473;1521885243;2973;65188;65105;16253;65292;2346;62905;67;65449;65504;0;0
474;1521885243;2332;65206;65114;16302;65269;2344;62900;89;65461;65497;0;0
475;1521885243;2014;65195;65106;16334;65269;2344;62900;67;65456;65468;0;0
476;1521885243;2072;65204;65097;16298;65247;2373;62924;79;65430;65482;0;0
477;1521885243;1868;65217;65098;16301;65247;2373;62924;60;65419;65478;0;0
478;1521885243;1930;65206;65107;16348;65247;2373;62924;64;65451;65506;0;0
479;1521885243;2589;65209;65081;16303;65274;2368;62918;67;65454;65500;0;0
480;1521885243;2987;65199;65093;16351;65274;2368;62918;80;65457;65484;0;0
481;1521885243;2364;65212;65095;16321;65294;2358;62945;68;65446;65492;0;0
482;1521885243;1977;65210;65092;16276;65294;2358;62945;56;65453;65510;0;0
483;1521885243;2135;65226;65106;16315;65297;2363;62932;63;65430;65473;0;0
484;1521885243;1830;65203;65096;16339;65297;2363;62932;98;65422;65505;0;0
485;1521885243;1937;65185;65088;16294;65297;2363;62932;86;65416;65507;0;0
486;1521885243;2639;65197;65078;16294;65277;2356;62938;58;65431;65477;0;0
487;1521885243;2948;65197;65100;16294;65277;2356;62938;64;65441;65504;0;0
488;1521885243;2368;65188;65095;16296;65264;2318;62908;74;65449;65524;0;0
489;1521885243;1934;65185;65103;16330;65264;2318;62908;53;65467;65513;0;0
490;1521885243;2140;65190;65112;16325;65264;2318;62908;74;65442;65490;0;0
491;1521885243;1995;65198;65098;16315;65268;2334;62930;75;65433;65503;0;0
492;1521885243;2431;65178;65095;16353;65268;2334;62930;57;65427;65483;0;0
493;1521885243;3058;65175;65096;16297;65263;2333;62960;66;65449;65502;0;0
494;1521885243;2188;65199;65107;16309;65263;2333;62960;70;65431;65515;0;0
495;1521885243;2192;65188;65105;16318;65256;2345;62930;60;65433;65496;0;0
496;1521885243;1875;65189;65078;16294;65256;2345;62930;95;65467;65501;0;0
497;1521885243;1962;65180;65104;16305;65256;2345;62930;72;65445;65490;0;0
498;1521885243;2056;65183;65107;16308;65274;2394;62930;62;65433;65506;0;0
499;1521885243;2396;65179;65100;16290;65274;2394;62930;104;65438;65513;0;0
500;1521885243;3075;65204;65099;16294;65266;2348;62952;73;65445;65485;0;0
501;1521885243;2189;65197;65114;16320;65266;2348;62952;66;65431;65513;0;0
502;1521885243;2226;65189;65104;16286;65266;2348;62952;111;65424;65509;0;0
503;1521885243;2054;65222;65112;16294;65258;2350;62924;93;65473;65500;0;0
504;1521885243;1936;65193;65114;16331;65258;2350;62924;76;65430;65486;0;0
505;1521885243;2064;65197;65113;16301;65260;2365;62923;86;65471;65499;0;0
506;1521885243;2492;65193;65091;16305;65260;2365;62923;80;65434;65493;0;0
507;1521885243;3133;65206;65081;16345;65249;2343;62941;87;65443;65486;0;0
508;1521885243;2185;65212;65090;16303;65249;2343;62941;78;65452;65496;0;0
509;1521885243;2005;65215;65095;16297;65249;2343;62941;49;65474;65483;0;0
510;1521885243;2076;65202;65094;16356;65240;2340;62901;63;65440;65507;0;0
511;1521885243;1949;65211;65077;16299;65240;2340;62901;87;65438;65510;0;0
512;1521885243;2102;65219;65104;16302;65248;2364;62893;60;65453;65510;0;0
513;1521885243;2459;65199;65102;16311;65248;2364;62893;95;65422;65511;0;0
514;1521885243;3145;65195;65105;16323;65248;2357;62899;52;65433;65494;0;0
515;1521885243;2174;65173;65100;16320;65240;2357;62899;100;65442;65488;0;0
516;1521885243;2034;65164;65102;16317;65240;2357;62899;95;65414;65498;0;0
517;1521885243;2072;65182;65092;16295;65269;2380;62910;92;65454;65482;0;0
518;1521885243;1939;65194;65116;16309;65269;2380;62910;61;65461;65493;0;0
519;1521885243;2088;65183;65101;16330;65246;2359;62904;66;65452;65502;0;0
520;1521885243;2453;65204;65096;16304;65246;2359;62904;78;65450;65499;0;0
521;1521885243;3069;65193;65111;16339;65246;2359;62904;48;65453;65481;0;0
522;1521885243;2345;65169;65104;16299;65265;2345;62907;76;65438;65508;0;0
523;1521885243;2003;65177;65090;16279;65265;2345;62907;93;65445;65493;0;0
524;1521885243;2099;65185;65095;16297;65273;2353;62946;65;65450;65511;0;0
525;1521885243;1907;65165;65099;16293;65273;2353;62946;82;65429;65519;0;0
526;1521885243;2124;65185;65100;16279;65273;2353;62946;81;65437;65512;0;0
527;1521885243;2412;65179;65106;16323;65245;2379;62945;81;65433;65510;0;0
528;1521885243;3006;65181;65093;16321;65245;2379;62945;87;65427;65507;0;0
529;1521885243;2334;65188;65099;16343;65281;2326;62911;88;65437;65502;0;0
530;1521885243;1980;65175;65111;16367;65281;2326;62911;48;65439;65464;0;0
531;1521885243;2139;65183;65091;16340;65263;2361;62906;55;65430;65485;0;0
532;1521885243;1865;65206;65098;16301;65263;2361;62906;59;65442;65506;0;0
533;1521885243;2698;65193;65099;16312;65263;2361;62906;84;65438;65471;0;0
534;1521885243;3055;65187;65089;16299;65251;2357;62914;70;65459;65509;0;0
535;1521885243;2229;65191;65089;16293;65251;2357;62914;55;65467;65506;0;0
536;1521885243;2130;65183;65093;16296;65282;2362;62950;56;65438;65461;0;0
537;1521885243;1903;65208;65096;16274;65282;2362;62950;88;65445;65478;0;0
538;1521885243;2103;65199;65106;16288;65282;2362;62950;80;65417;65471;0;0
539;1521885243;2007;65194;65110;16300;65262;2335;62959;66;65444;65508;0;0
540;1521885243;2911;65195;65105;16296;65262;2335;62959;101;65444;65485;0;0
541;1521885243;3184;65218;65097;16346;65262;2361;62918;81;65441;65483;0;0
542;1521885243;2232;65193;65095;16333;65262;2361;62918;94;65437;0;0;0
543;1521885243;2161;65185;65094;16299;65230;2335;62910;84;65454;65495;0;0
544;1521885243;1893;65197;65106;16330;65230;2335;62910;51;65438;65493;0;0
545;1521885243;1951;65207;65098;16293;65230;2335;62910;63;65432;65507;0;0
546;1521885243;2039;65200;65088;16296;65258;2349;62911;82;65431;65513;0;0
547;1521885243;2421;65190;65084;16356;65258;2349;62911;76;65437;65490;0;0
548;1521885243;3048;65205;65087;16282;65225;2350;62934;79;65465;65494;0;0
549;1521885243;2163;65225;65104;16297;65225;2350;62934;89;65444;65478;0;0
550;1521885243;2158;65202;65104;16347;65225;2356;62960;81;65435;65497;0;0
551;1521885243;1861;65196;65104;16318;65252;2356;62960;58;65454;65512;0;0
552;1521885243;1943;65208;65102;16293;65252;2356;62960;90;65459;65487;0;0
553;1521885243;2072;65216;65103;16342;65248;2353;62945;80;65437;65498;0;0
554;1521885243;2375;65204;65092;16303;65248;2353;62945;61;65445;65484;0;0
555;1521885243;3090;65198;65103;16305;65236;2358;62949;123;65444;65499;0;0
556;1521885243;2182;65189;65111;16304;65236;2358;62949;83;65458;65494;0;0
557;1521885243;2150;65183;65110;16304;65236;2358;62949;69;65460;65495;0;0
558;1521885243;2057;65175;65120;16293;65264;2359;62934;81;65431;65504;0;0
559;1521885243;1943;65179;65115;16312;65264;2359;62934;99;65440;65518;0;0
560;1521885243;2087;65183;65089;16309;65232;2348;62907;68;65427;65485;0;0
561;1521885243;2495;65187;65100;16316;65232;2348;62907;71;65442;65497;0;0
562;1521885243;3161;65176;65106;16314;65256;2338;62931;70;65449;65522;0;0
563;1521885243;2148;65191;65110;16292;65256;2338;62931;69;65447;65505;0;0
564;1521885243;2030;65178;65099;16292;65256;2338;62931;59;65442;65475;0;0
565;1521885243;2062;65188;65116;16315;65253;2341;62962;55;65443;65489;0;0
566;1521885243;1906;65177;65108;16293;65253;2341;62962;70;65442;65486;0;0
567;1521885243;2133;65198;65112;16240;65273;2322;62965;104;65441;65475;0;0
568;1521885243;2473;65200;65099;16287;65273;2322;62965;79;65465;65526;0;0
569;1521885243;3186;65194;65091;16278;65273;2322;62965;92;65449;65499;0;0
570;1521885243;2347;65191;65101;16294;65265;2354;62935;76;65458;65484;0;0
571;1521885243;2017;65173;65099;16291;65265;2354;62935;72;65442;65503;0;0
572;1521885243;2116;65189;65106;16267;65257;2340;62947;96;65462;65530;0;0
573;1521885243;1895;65197;65096;16302;65257;2340;62947;108;65453;65509;0;0
574;1521885243;2652;65215;65098;16309;65241;2363;62925;95;65438;65495;0;0
575;1521885243;2899;65220;65100;16316;65241;2363;62925;80;65462;65523;0;0
576;1521885243;2246;65198;65097;16388;65241;2363;62925;85;65446;65525;0;0
577;1521885243;2125;65180;65097;16366;65284;2352;62924;92;65429;65522;0;0
578;1521885243;1905;65204;65089;16344;65284;2352;62924;73;65481;65507;0;0
579;1521885243;2109;65194;65098;16352;65279;2352;62925;73;65442;65489;0;0
580;1521885243;1857;65180;65096;16386;65279;2352;62925;82;65464;65508;0;0
581;1521885243;2660;65183;65096;16344;65279;2352;62910;72;65422;65475;0;0
582;1521885243;3053;65167;65111;16359;65274;2359;62910;66;65429;65495;0;0
583;1521885243;2234;65172;65087;16348;65274;2359;62910;66;65455;65521;0;0
584;1521885243;2150;65176;65086;16305;65270;2343;62917;52;65455;65506;0;0
585;1521885243;1912;65183;65107;16320;65270;2343;62917;77;65421;65520;0;0
586;1521885243;2099;65195;65083;16327;65526;2349;62892;87;65414;65492;0;0
587;1521885243;1897;65185;65088;16293;65281;2349;62892;75;65451;65507;0;0
588;1521885243;2425;65189;65092;16261;65281;2349;62892;74;65449;65493;0;0
589;1521885243;3081;65182;65093;16292;65272;2344;62935;74;65454;65523;0;0
590;1521885243;2218;65181;65106;16300;65272;2344;62935;80;65463;65527;0;0
591;1521885243;2204;65200;65107;16302;65267;2345;62917;63;65434;65499;0;0
592;1521885243;1899;65219;65101;16302;65267;2345;62917;71;65448;65523;0;0
593;1521885243;2088;65231;65112;16281;65267;2345;62917;65;65448;65502;0;0
594;1521885243;2053;65207;65097;16324;65275;2344;62936;65;65447;65500;0;0
595;1521885243;2499;65225;65088;16300;65275;2344;62936;38;65452;65517;0;0
596;1521885243;3099;65198;65094;16322;65284;2357;62924;76;65420;65509;0;0
597;1521885243;2198;65199;65106;16349;65284;2357;62924;72;65435;65504;0;0
598;1521885243;2188;65212;65095;16282;65309;2340;62936;84;65432;65500;0;0
599;1521885243;1889;65201;65090;16338;65309;2340;62936;53;65431;65492;0;0
600;1521885243;1949;65199;65108;16311;65309;2340;62936;86;65436;65501;0;0
601;1521885243;2034;65197;65095;16272;65300;2341;62930;95;65436;65506;0;0
602;1521885243;2438;65200;65095;16297;65300;2341;62930;73;65443;65517;0;0
603;1521885243;3123;65175;65091;16294;65247;2309;62955;92;65455;65492;0;0
604;1521885243;2198;65184;65103;16247;65247;2309;62955;75;65434;65525;0;0
605;1521885243;2199;65174;65112;16293;65247;2309;62955;70;65442;65531;0;0
606;1521885243;2051;65175;65092;16292;65244;2361;62895;55;65444;65511;0;0
607;1521885243;1943;65190;65107;16280;65244;2361;62895;73;65440;65504;0;0
608;1521885243;2578;65191;65079;16297;65272;2326;62938;71;65444;65482;0;0
609;1521885243;2955;65198;65103;16316;65272;2326;62938;90;65430;65533;0;0
610;1521885243;2456;65201;65103;16302;65251;2379;62946;76;65446;65525;0;0
611;1521885243;1934;65183;65096;16357;65251;2379;62946;82;65437;65494;0;0
612;1521885243;1966;65186;65086;16383;65251;2379;62946;54;65448;65500;0;0
613;1521885243;2042;65169;65090;16354;65265;2356;62961;80;65458;65517;0;0
614;1521885243;1890;65196;65092;16359;65265;2356;62961;64;65486;65500;0;0
615;1521885243;2657;65189;65070;16356;65294;2328;62931;53;65461;65503;0;0
616;1521885243;2929;65183;65093;16329;65294;2328;62931;99;65450;65501;0;0
617;1521885243;2457;65178;65088;16322;65294;2328;62930;73;65446;65502;0;0
618;1521885243;2141;65165;65096;16294;65264;2338;62930;58;65443;65493;0;0
619;1521885243;1997;65187;65112;16302;65264;2338;62930;89;65446;65508;0;0
620;1521885243;2066;65203;65107;16301;65286;2340;62942;42;65441;65484;0;0
621;1521885243;1887;65186;65097;16305;65286;2340;62942;45;65437;65505;0;0
622;1521885243;2638;65207;65103;16328;65264;2359;62945;60;65448;65514;0;0
623;1521885243;2904;65171;65127;16300;65264;2359;62945;59;65441;65507;0;0
624;1521885243;2230;65178;65113;16271;65264;2359;62945;65;65452;65501;0;0
625;1521885243;2100;65208;65129;16274;65276;2347;62944;85;65446;65495;0;0
626;1521885244;1948;65190;65111;16306;65276;2347;62944;95;65475;65482;0;0
627;1521885244;2054;65187;65103;16296;65249;2398;62904;78;65449;65494;0;0
628;1521885244;1870;65200;65102;16300;65249;2398;62904;53;65454;65476;0;0
629;1521885244;2637;65184;65076;16328;65285;2371;62929;89;65447;65499;0;0
630;1521885244;2874;65212;65089;16341;65285;2371;62929;51;65449;65514;0;0
631;1521885244;2228;65220;65103;16328;65285;2371;62929;63;65434;65488;0;0
632;1521885244;2146;65212;65090;16359;65282;2374;62933;68;65434;65501;0;0
633;1521885244;1933;65211;65087;16335;65282;2374;62933;67;65426;65512;0;0
634;1521885244;2112;65208;65098;16315;65288;2342;62912;81;65449;65517;0;0
635;1521885244;1870;65220;65089;16346;65288;2342;62912;96;65452;65497;0;0
636;1521885244;2651;65218;65087;16326;65288;2342;62912;101;65441;65491;0;0
637;1521885244;3056;65203;65104;16325;65289;2347;62930;47;65441;65496;0;0
638;1521885244;2210;65198;65104;16308;65289;2347;62930;63;65446;65503;0;0
639;1521885244;2134;65200;65095;16283;65275;2355;62975;76;65446;65496;0;0
640;1521885244;1888;65207;65101;16324;65275;2355;62975;66;65464;65531;0;0
641;1521885244;2109;65191;65113;16303;65275;2355;62975;88;65428;65495;0;0
642;1521885244;2016;65214;65093;16295;65296;2383;62919;66;65437;65502;0;0
643;1521885244;2488;65202;65100;16323;65296;2383;62919;90;65445;65470;0;0
644;1521885244;3068;65192;65091;16296;65280;2364;62941;64;65449;65483;0;0
645;1521885244;2205;65199;65107;16331;65280;2364;62941;104;65438;65492;0;0
646;1521885244;2173;65184;65114;16323;65277;2363;62917;85;65430;65534;0;0
647;1521885244;1849;65176;65101;16273;65277;2363;62917;85;65457;65505;0;0
648;1521885244;1963;65210;65110;16256;65277;2363;62917;64;65470;65507;0;0
649;1521885244;2632;65172;65119;16302;65302;2353;62930;78;65444;65512;0;0
650;1521885244;2961;65186;65094;16262;65302;2353;62930;86;65447;11;0;0
651;1521885244;2348;65183;65099;16289;65264;2345;62915;81;65450;65513;0;0
652;1521885244;1980;65164;65114;16297;65264;2345;62915;79;65438;65492;0;0
653;1521885244;2129;65175;65097;16294;65264;2345;62904;85;65441;65511;0;0
654;1521885244;2025;65209;65097;16295;65290;2351;62904;78;65439;65531;0;0
655;1521885244;1939;65204;65101;16343;65290;2351;62904;72;65441;65519;0;0
656;1521885244;2596;65203;65112;16351;65242;2371;62901;65;65457;65496;0;0
657;1521885244;2944;65199;65115;16341;65242;2371;62901;71;65454;65489;0;0
658;1521885244;2406;65192;65103;16337;65261;2382;62906;98;65424;65496;0;0
659;1521885244;1951;65206;65089;16356;65261;2382;62906;79;65438;65507;0;0
660;1521885244;1998;65204;65079;16357;65261;2382;62906;88;65435;65502;0;0
661;1521885244;2058;65178;65077;16379;65287;2345;62923;101;65452;65517;0;0
662;1521885244;1902;65181;65065;16324;65287;2345;62923;62;65431;65507;0;0
663;1521885244;2572;65204;65082;16328;65264;2374;62962;75;65449;65512;0;0
664;1521885244;2899;65196;65082;16311;65264;2374;62962;60;65467;65490;0;0
665;1521885244;2428;65198;65106;16304;65275;2349;62938;53;65427;65478;0;0
666;1521885244;1935;65204;65111;16306;65275;2349;62938;77;65450;65507;0;0
667;1521885244;1970;65190;65095;16299;65275;2349;62938;69;65438;65495;0;0
668;1521885244;2084;65186;65098;16295;65238;2348;62957;67;65450;65511;0;0
669;1521885244;1936;65198;65100;16306;65238;2348;62957;80;65453;65500;0;0
670;1521885244;2640;65182;65093;16279;65279;2347;62926;57;65441;65499;0;0
671;1521885244;2920;65206;65104;16293;65279;2347;62926;91;65455;65529;0;0
672;1521885244;2468;65190;65110;16352;65279;2347;62926;88;65427;65501;0;0
673;1521885244;2115;65194;65108;16321;65272;2356;62960;46;65460;65499;0;0
674;1521885244;1932;65187;65090;16310;65272;2356;62960;68;65446;65505;0;0
675;1521885244;2072;65200;65103;16341;65277;2355;62931;89;65460;65517;0;0
676;1521885244;1882;65167;65099;16306;65277;2355;62931;76;65451;65510;0;0
677;1521885244;2665;65199;65091;16293;65286;2351;62955;75;65444;65491;0;0
678;1521885244;2886;65182;65093;16342;65286;2351;62955;82;65424;65490;0;0
679;1521885244;2256;65194;65095;16324;65286;2351;62955;82;65446;65500;0;0
680;1521885244;2126;65209;65110;16309;65277;2334;62935;74;65440;65531;0;0
681;1521885244;1939;65187;65099;16356;65277;2334;62935;74;65446;65482;0;0
682;1521885244;2113;65159;65094;16325;65266;2375;62907;100;65448;65485;0;0
683;1521885244;1879;65175;65116;16274;65266;2375;62907;74;65439;65503;0;0
684;1521885244;2666;65185;65120;16302;65266;2375;62907;67;65436;65478;0;0
685;1521885244;3072;65188;65108;16294;65261;2364;62929;81;65463;65502;0;0
686;1521885244;2251;65184;65112;16283;65261;2364;62929;55;65446;65500;0;0
687;1521885244;2158;65170;65099;16288;65265;2343;62919;83;65453;65505;0;0
688;1521885244;1922;65181;65097;16262;65265;2343;62919;80;65470;65491;0;0
689;1521885244;2127;65198;65097;16287;65265;2343;62936;70;65429;65499;0;0
690;1521885244;2405;65207;65086;16293;65272;2362;62936;76;65463;65489;0;0
691;1521885244;2983;65203;65089;16308;65272;2362;62936;55;65434;65505;0;0
692;1521885244;2331;65195;65107;16310;65268;2354;62911;71;65446;65504;0;0
693;1521885244;1980;65185;65097;16294;65268;2354;62911;84;65448;65531;0;0
694;1521885244;2072;65199;65099;16300;65269;2331;62913;63;65437;65516;0;0
695;1521885244;1862;65208;65096;16356;65269;2331;62913;81;65451;65496;0;0
696;1521885244;1951;65203;65107;16306;65269;2331;62913;78;65465;65495;0;0
697;1521885244;2620;65206;65096;16311;65293;2369;62908;64;65446;65480;0;0
698;1521885244;2998;65221;65096;16357;65293;2369;62908;82;65452;65504;0;0
699;1521885244;2366;65188;65101;16323;65285;2334;62922;91;65442;65506;0;0
700;1521885244;1965;65220;65114;16297;65285;2334;62922;68;65457;65509;0;0
701;1521885244;2130;65213;65112;16324;65262;2376;62887;83;65450;65498;0;0
702;1521885244;1838;65197;65107;16312;65262;2376;62887;77;65447;65487;0;0
703;1521885244;1935;65190;65113;16271;65262;2376;62887;60;65433;65491;0;0
704;1521885244;2637;65192;65115;16303;65268;2362;62880;55;65439;65505;0;0
705;1521885244;2952;65194;65097;16279;65268;2362;62880;71;65463;65494;0;0
706;1521885244;2367;65180;65119;16250;65273;2334;62890;77;65458;65504;0;0
707;1521885244;1982;65184;65109;16315;65273;2334;62890;58;65456;65486;0;0
708;1521885244;2158;65184;65084;16327;65273;2334;62890;69;65427;65494;0;0
709;1521885244;2041;65187;65082;16322;65266;2360;62898;94;65422;65491;0;0
710;1521885244;1932;65194;65093;16366;65266;2360;62898;80;65453;65508;0;0
711;1521885244;2543;65197;65100;16309;65280;2346;62865;83;65472;65528;0;0
712;1521885244;2937;65189;65098;16320;65280;2346;62865;67;65444;65485;0;0
713;1521885244;2393;65192;65102;16303;65265;2356;62901;62;65451;65471;0;0
714;1521885244;1940;65192;65091;16283;65265;2356;62901;77;65442;65510;0;0
715;1521885244;1970;65201;65101;16298;65265;2356;62901;71;65459;65502;0;0
716;1521885244;2052;65178;65112;16325;65279;2339;62900;85;65455;65505;0;0
717;1521885244;1923;65172;65105;16301;65279;2339;62900;87;65436;65491;0;0
718;1521885244;2574;65181;65116;16369;65292;2358;62920;68;65447;65485;0;0
719;1521885244;2908;65177;65096;16356;65292;2358;62920;63;65430;65508;0;0
720;1521885244;2438;65184;65109;16303;65292;2358;62920;77;65444;65506;0;0
721;1521885244;2126;65187;65120;16330;65278;2329;62901;50;65450;65483;0;0
722;1521885244;1957;65182;65107;16311;65278;2329;62901;74;65428;65493;0;0
723;1521885244;2059;65198;65081;16299;65277;2373;62894;59;65447;65489;0;0
724;1521885244;1922;65193;65103;16335;65277;2373;62894;84;65412;65498;0;0
725;1521885244;2651;65185;65100;16339;65282;2376;62931;59;65449;65503;0;0
726;1521885244;2896;65184;65098;16313;65282;2376;62931;93;65461;65509;0;0
727;1521885244;2246;65208;65098;16348;65282;2376;62931;86;65437;65503;0;0
728;1521885244;2106;65179;65105;16316;65272;2388;62920;96;65426;65512;0;0
729;1521885244;1927;65193;65101;16254;65272;2388;62920;53;65445;65527;0;0
730;1521885244;2089;65200;65110;16306;65281;2367;62891;46;65436;65502;0;0
731;1521885244;2423;65196;65120;16295;65281;2367;62891;83;65458;65508;0;0
732;1521885244;3172;65192;65109;16269;65281;2377;62887;81;65474;65496;0;0
733;1521885244;2189;65175;65116;16325;65284;2377;62887;95;65463;65496;0;0
734;1521885244;2022;65169;65114;16306;65284;2377;62887;91;65423;65484;0;0
735;1521885244;2107;65189;65111;16280;65293;2374;62883;80;65432;65496;0;0
736;1521885244;1908;65202;65118;16300;65293;2374;62883;105;65434;65513;0;0
737;1521885244;2129;65179;65108;16306;65270;2386;62902;63;65442;65508;0;0
738;1521885244;2428;65168;65090;16308;65270;2386;62902;74;65447;65492;0;0
739;1521885244;2992;65163;65097;16311;65270;2386;62902;50;65426;65507;0;0
740;1521885244;2333;65184;65110;16294;65294;2340;62945;57;65440;65490;0;0
741;1521885244;2013;65206;65103;16316;65294;2340;62945;75;65454;65517;0;0
742;1521885244;2107;65193;65106;16339;65268;2354;62970;108;65435;65519;0;0
743;1521885244;1899;65204;65091;16328;65268;2354;62970;49;65442;65507;0;0
744;1521885244;2164;65205;65092;16299;65268;2354;62970;73;65433;65501;0;0
745;1521885244;2439;65188;65103;16322;65279;2393;62946;50;65439;65511;0;0
746;1521885244;2988;65197;65100;16284;65279;2393;62946;82;65446;65499;0;0
747;1521885244;2376;65215;65109;16289;65276;2366;62947;75;65457;65529;0;0
748;1521885244;2014;65197;65098;16329;65276;2366;62947;101;65431;65504;0;0
749;1521885244;2168;65185;65106;16292;65287;2349;62935;80;65468;65494;0;0
750;1521885244;1881;65198;65105;16292;65287;2349;62935;72;65447;65507;0;0
751;1521885244;1950;65188;65097;16325;65287;2349;62935;67;65443;65507;0;0
752;1521885244;2601;65195;65102;16316;65275;2342;62932;75;65459;65494;0;0
753;1521885244;2999;65196;65108;16316;65275;2342;62932;77;65455;65514;0;0
754;1521885244;2372;65185;65102;16313;65276;2382;62935;80;65462;65514;0;0
755;1521885244;1984;65182;65103;16285;65276;2382;62935;81;65443;65506;0;0
756;1521885244;2139;65184;65104;16314;65276;2382;62935;95;65455;65495;0;0
757;1521885244;2009;65165;65106;16333;65288;2376;62921;50;65428;65488;0;0
758;1521885244;1934;65167;65092;16293;65288;2376;62921;77;65421;65511;0;0
759;1521885244;2627;65197;65096;16326;65275;2382;62935;126;65426;65519;0;0
760;1521885244;2967;65198;65088;16312;65275;2382;62935;87;65418;65494;0;0
761;1521885244;2424;65208;65089;16306;65275;2345;62950;89;65445;65492;0;0
762;1521885244;1952;65201;65085;16308;65275;2345;62950;84;65431;65508;0;0
763;1521885244;1976;65182;65084;16324;65275;2345;62950;96;65445;65509;0;0
764;1521885244;2047;65190;65090;16308;65282;2360;62932;73;65439;65504;0;0
765;1521885244;2438;65206;65086;16345;65282;2360;62932;85;65432;65510;0;0
766;1521885244;3090;65203;65084;16302;65274;2344;62949;77;65454;65523;0;0
767;1521885244;2190;65208;65093;16307;65274;2344;62949;63;65443;65509;0;0
768;1521885244;2201;65210;65093;16330;65274;2359;62937;101;65457;65509;0;0
769;1521885244;1922;65196;65094;16301;65249;2359;62937;54;65446;65516;0;0
770;1521885244;1952;65213;65090;16316;65249;2359;62937;67;65462;65529;0;0
771;1521885244;2061;65195;65081;16351;65282;2347;62936;55;65430;65505;0;0
772;1521885244;2434;65211;65106;16288;65282;2347;62936;83;65444;65474;0;0
773;1521885244;3116;65192;65111;16293;65283;2361;62915;79;65412;65501;0;0
774;1521885244;2176;65175;65106;16310;65283;2361;62915;101;65446;65495;0;0
775;1521885244;2093;65178;65098;16306;65283;2361;62915;96;65458;65527;0;0
776;1521885244;2068;65202;65109;16298;65265;2338;62899;51;65437;65522;0;0
777;1521885244;1934;65207;65102;16337;65265;2338;62899;90;65449;65503;0;0
778;1521885244;2104;65186;65102;16332;65302;2349;62968;75;65462;65493;0;0
779;1521885244;2471;65199;65106;16330;65302;2349;62968;90;65445;65473;0;0
780;1521885244;3167;65199;65106;16343;65282;2331;62932;85;65441;65511;0;0
781;1521885244;2155;65195;65114;16317;65282;2331;62932;66;65453;65504;0;0
782;1521885244;2041;65194;65107;16325;65282;2331;62932;70;65449;65519;0;0
783;1521885244;2096;65191;65098;16318;65255;2360;62928;45;65459;65486;0;0
784;1521885244;1950;65193;65096;16296;65255;2360;62928;82;65457;65506;0;0
785;1521885244;2151;65213;65103;16296;65280;2361;62923;30;65433;65479;0;0
786;1521885244;2454;65208;65096;16312;65280;2361;62923;62;65464;65506;0;0
787;1521885244;3170;65206;65095;16325;65280;2361;62923;64;65456;65507;0;0
788;1521885244;2300;65180;65104;16331;65312;2351;62952;86;65433;65519;0;0
789;1521885244;2020;65199;65105;16324;65312;2351;62952;84;65435;65529;0;0
790;1521885244;2060;65185;65096;16323;65284;2351;62910;72;65421;65529;0;0
791;1521885244;1879;65192;65097;16319;65284;2351;62910;62;65447;65516;0;0
792;1521885244;2132;65177;65096;16350;65284;2351;62934;56;65438;65513;0;0
793;1521885244;2436;65211;65113;16310;65283;2349;62934;57;65437;65499;0;0
794;1521885244;2971;65187;65125;16326;65283;2349;62934;56;65452;65505;0;0
795;1521885244;2370;65170;65104;16293;65269;2385;62914;74;65443;65520;0;0
796;1521885244;1985;65179;65107;16297;65269;2385;62914;80;65461;65522;0;0
797;1521885244;2101;65176;65108;16325;65251;2370;62947;80;65468;65497;0;0
798;1521885244;1871;65182;65100;16298;65251;2370;62947;80;65441;65500;0;0
799;1521885244;1957;65218;65102;16293;65251;2370;62947;74;65439;65520;0;0
800;1521885244;2626;65210;65110;16334;65233;2369;62937;59;65447;65528;0;0
801;1521885244;2970;65202;65080;16304;65233;2369;62937;56;65435;65516;0;0
802;1521885244;2351;65209;65101;16294;65257;2353;62939;90;65458;65474;0;0
803;1521885244;1985;65196;65108;16356;65257;2353;62939;67;65453;65522;0;0
804;1521885244;2153;65192;65090;16312;65257;2387;62903;60;65416;65493;0;0
805;1521885244;1908;65202;65096;16298;65264;2387;62903;70;65451;65516;0;0
806;1521885244;2494;65200;65092;16321;65264;2387;62903;41;65428;65514;0;0
807;1521885244;3064;65216;65090;16308;65252;2386;62920;31;65449;65505;0;0
808;1521885244;2231;65192;65087;16328;65252;2386;62920;70;65453;65514;0;0
809;1521885244;2172;65202;65108;16359;65257;2374;62908;73;65464;65499;0;0
810;1521885244;1888;65189;65096;16300;65257;2374;62908;47;65454;65504;0;0
811;1521885244;2001;65220;65109;16322;65257;2374;62908;97;65442;65509;0;0
812;1521885244;2042;65199;65112;16343;65267;2376;62913;76;65449;65525;0;0
813;1521885244;2477;65191;65120;16319;65267;2376;62913;66;65441;65498;0;0
814;1521885244;3070;65201;65107;16332;65275;2363;62906;87;65456;65498;0;0
815;1521885244;2189;65181;65100;16296;65275;2363;62906;83;65455;65522;0;0
816;1521885244;2187;65186;65098;16292;65246;2346;62930;75;65419;0;0;0
817;1521885244;1867;65178;65114;16306;65246;2346;62930;56;65439;65528;0;0
818;1521885244;1947;65184;65123;16304;65246;2346;62930;80;65451;65522;0;0
819;1521885244;2082;65184;65105;16298;65278;2345;62956;67;65463;65514;0;0
820;1521885245;2384;65160;65111;16326;65278;2345;62956;115;65431;65518;0;0
821;1521885245;3119;65178;65102;16317;65264;2366;62946;80;65458;65520;0;0
822;1521885245;2159;65201;65101;16293;65264;2366;62946;65;65437;65498;0;0
823;1521885245;2209;65188;65104;16345;65264;2366;62946;79;65460;65525;0;0
824;1521885245;2090;65181;65107;16329;65283;2352;62953;99;65445;65505;0;0
825;1521885245;1915;65197;65099;16302;65283;2352;62953;50;65456;65517;0;0
826;1521885245;2073;65210;65117;16306;65278;2347;62932;74;65462;65525;0;0
827;1521885245;2413;65196;65080;16317;65278;2347;62932;51;65448;65513;0;0
828;1521885245;3146;65196;65104;16288;65263;2384;62915;58;65422;65517;0;0
829;1521885245;2134;65196;65098;16324;65263;2384;62915;72;65457;246;0;0
830;1521885245;2027;65187;65114;16322;65263;2384;62915;72;65445;65534;0;0
831;1521885245;2060;65213;65099;16294;65273;2352;62937;87;65432;65502;0;0
832;1521885245;1965;65210;65095;16347;65273;2352;62937;82;65445;65497;0;0
833;1521885245;2119;65212;65096;16297;65263;2358;62921;76;65447;65499;0;0
834;1521885245;2487;65200;65085;16318;65263;2358;62921;64;65431;65498;0;0
835;1521885245;3161;65191;65111;16312;65263;2358;62921;68;65460;65528;0;0
836;1521885245;2357;65197;65111;16272;65272;2349;62934;78;65446;65511;0;0
837;1521885245;2017;65216;65116;16276;65272;2349;62934;81;65454;65513;0;0
838;1521885245;2093;65185;65099;16323;65296;2362;62924;96;65454;65524;0;0
839;1521885245;1935;65198;65106;16306;65296;2362;62924;84;65461;65502;0;0
840;1521885245;2119;65190;65096;16305;65040;2337;62912;65;65431;65521;0;0
841;1521885245;2449;65207;65084;16295;65274;2337;62912;53;65447;65516;0;0
842;1521885245;2974;65208;65081;16315;65274;2337;62912;65;65443;65488;0;0
843;1521885245;2371;65199;65105;16331;65294;2339;62919;55;65451;65493;0;0
844;1521885245;1987;65185;65090;16333;65294;2339;62919;69;65453;65507;0;0
845;1521885245;2100;65204;65110;16294;65328;2350;62928;84;65430;65511;0;0
846;1521885245;1890;65192;65109;16327;65328;2350;62928;90;65471;65527;0;0
847;1521885245;2652;65194;65087;16309;65328;2335;62910;86;65443;65513;0;0
848;1521885245;2897;65219;65108;16298;65293;2335;62910;68;65454;65489;0;0
849;1521885245;2241;65206;65101;16307;65293;2335;62910;92;65436;65496;0;0
850;1521885245;2131;65175;65091;16334;65278;2365;62927;106;65449;65519;0;0
851;1521885245;1897;65192;65095;16261;65278;2365;62927;69;65435;65487;0;0
852;1521885245;2101;65213;65108;16313;65293;2358;62915;81;65438;65531;0;0
853;1521885245;1814;65175;65112;16315;65293;2358;62915;79;65412;65505;0;0
854;1521885245;2557;65193;65096;16324;65293;2358;62915;67;65415;65487;0;0
855;1521885245;3020;65184;65114;16308;65282;2386;62909;86;65438;65505;0;0
856;1521885245;2217;65189;65108;16295;65282;2386;62909;81;65434;65521;0;0
857;1521885245;2136;65177;65120;16316;65274;2349;62919;64;65442;65505;0;0
858;1521885245;1874;65195;65116;16329;65274;2349;62919;99;65435;65520;0;0
859;1521885245;2144;65177;65092;16314;65274;2349;62919;58;65430;65479;0;0
860;1521885245;2034;65183;65098;16296;65313;2350;62923;74;65408;65520;0;0
861;1521885245;2497;65196;65093;16304;65313;2350;62923;76;65422;65483;0;0
862;1521885245;3071;65184;65089;16294;65306;2363;62918;97;65447;65468;0;0
863;1521885245;2196;65185;65111;16326;65306;2363;62918;80;65440;65516;0;0
864;1521885245;2198;65179;65105;16290;65306;2365;62953;93;65447;65509;0;0
865;1521885245;1878;65174;65100;16295;65306;2365;62953;82;65435;65499;0;0
866;1521885245;1949;65183;65109;16317;65306;2365;62953;81;65435;65517;0;0
867;1521885245;2041;65163;65127;16325;65290;2366;62947;71;65454;65504;0;0
868;1521885245;2477;65201;65125;16328;65290;2366;62947;57;65454;65499;0;0
869;1521885245;3098;65202;65116;16307;65301;2400;62948;84;65470;65498;0;0
870;1521885245;2204;65179;65113;16309;65301;2400;62948;80;65454;65499;0;0
871;1521885245;2241;65183;65103;16272;65301;2400;63204;72;65465;65507;0;0
872;1521885245;2054;65194;65111;16288;65282;2349;62981;75;65420;65489;0;0
873;1521885245;1965;65189;65106;16291;65282;2349;62981;80;65459;65493;0;0
874;1521885245;2026;65182;65102;16285;65278;2373;62953;86;65425;65516;0;0
875;1521885245;2438;65212;65126;16311;65278;2373;62953;66;65435;65504;0;0
876;1521885245;3078;65191;65091;16338;65266;2369;62958;63;65466;65475;0;0
877;1521885245;2136;65189;65091;16303;65266;2369;62958;80;65444;65516;0;0
878;1521885245;2014;65203;65105;16305;65266;2369;62958;60;65443;65500;0;0
879;1521885245;2010;65187;65089;16352;65266;2372;62986;73;65434;65515;0;0
880;1521885245;1880;65182;65106;16309;65266;2372;62986;67;65435;65503;0;0
881;1521885245;2041;65206;65105;16331;65270;2357;62921;67;65436;65483;0;0
882;1521885245;2505;65191;65111;16319;65270;2357;62921;80;65463;65497;0;0
883;1521885245;3183;65201;65089;16275;65270;2359;62969;68;65462;65514;0;0
884;1521885245;2234;65204;65109;16319;65260;2359;62969;74;65442;65526;0;0
885;1521885245;2026;65179;65093;16312;65260;2359;62969;56;65456;65502;0;0
886;1521885245;2043;65198;65097;16255;65297;2357;62923;99;65440;65507;0;0
887;1521885245;1892;65202;65109;16315;65297;2357;62923;50;65465;65497;0;0
888;1521885245;2702;65197;65099;16306;65276;2353;62928;64;65412;65518;0;0
889;1521885245;2869;65195;65109;16340;65276;2353;62928;86;65469;65526;0;0
890;1521885245;2359;65192;65102;16352;65276;2353;62928;84;65425;65483;0;0
891;1521885245;2081;65183;65100;16319;65279;2355;62963;95;65447;65479;0;0
892;1521885245;1903;65199;65101;16335;65279;2355;62963;94;65448;65486;0;0
893;1521885245;2071;65195;65096;16334;65268;2338;62934;74;65458;65479;0;0
894;1521885245;1866;65203;65098;16327;65268;2338;62934;81;65438;65503;0;0
895;1521885245;2690;65200;65111;16329;65290;2374;62926;87;65429;65532;0;0
896;1521885245;2860;65189;65091;16337;65290;2374;62926;82;65432;65520;0;0
897;1521885245;2250;65182;65085;16277;65290;2374;62926;82;65450;65500;0;0
898;1521885245;2152;65202;65105;16297;65260;2343;62929;83;65424;65496;0;0
899;1521885245;1907;65182;65102;16328;65260;2343;62929;98;65450;65521;0;0
900;1521885245;2078;65213;65091;16302;65275;2324;62975;65;65460;65510;0;0
901;1521885245;1837;65202;65117;16310;65275;2324;62975;92;65441;65505;0;0
902;1521885245;2690;65206;65099;16347;65275;2324;62975;70;65460;65487;0;0
903;1521885245;3040;65188;65106;16305;65268;2372;62958;73;65452;65503;0;0
904;1521885245;2223;65188;65113;16342;65268;2372;62958;80;65463;65478;0;0
905;1521885245;2110;65170;65103;16317;65268;2338;62958;84;65437;65496;0;0
906;1521885245;1903;65198;65110;16257;65268;2338;62958;78;65437;65515;0;0
907;1521885245;2147;65220;65113;16304;65268;2338;63214;62;65452;65503;0;0
908;1521885245;2012;65199;65102;16315;65238;2340;62998;64;65448;0;0;0
909;1521885245;2474;65197;65092;16319;65238;2340;62998;72;65428;65498;0;0
910;1521885245;3051;65194;65103;16332;65269;2344;62916;99;65431;65520;0;0
911;1521885245;2201;65200;65099;16303;65269;2344;62916;74;65423;65502;0;0
912;1521885245;2168;65199;65095;16292;65260;2326;62912;77;65440;65522;0;0
913;1521885245;1895;65196;65106;16344;65260;2326;62912;75;65461;65490;0;0
914;1521885245;1937;65188;65092;16356;65260;2326;62912;105;65466;65514;0;0
915;1521885245;2019;65182;65092;16322;65264;2328;62933;60;65468;65497;0;0
916;1521885245;2474;65186;65094;16358;65264;2328;62933;72;65453;65514;0;0
917;1521885245;3090;65182;65091;16316;65244;2312;62897;102;65432;65493;0;0
918;1521885245;2203;65186;65101;16325;65244;2312;62897;76;65453;65509;0;0
919;1521885245;2196;65174;65099;16376;65500;2329;62899;51;65433;65505;0;0
920;1521885245;1902;65197;65099;16338;65297;2329;62899;77;65448;65511;0;0
921;1521885245;1959;65183;65097;16321;65297;2329;62899;86;65456;65511;0;0
922;1521885245;2652;65182;65097;16345;65268;2343;62891;50;65452;65496;0;0
923;1521885245;2986;65187;65113;16291;65268;2343;62891;63;65451;65502;0;0
924;1521885245;2397;65195;65120;16310;65287;2340;62908;92;65438;65511;0;0
925;1521885245;1978;65183;65112;16334;65287;2340;62908;75;65437;65525;0;0
926;1521885245;2101;65168;65103;16292;65287;2340;62908;51;65447;65481;0;0
927;1521885245;2032;65198;65122;16316;65274;2339;62942;62;65435;65500;0;0
928;1521885245;1939;65213;65119;16317;65274;2339;62942;56;65446;65498;0;0
929;1521885245;2560;65199;65098;16299;65269;2335;62923;84;65491;65506;0;0
930;1521885245;2922;65200;65111;16302;65269;2335;62923;73;65438;65502;0;0
931;1521885245;2401;65212;65100;16306;65261;2342;62896;96;65472;65506;0;0
932;1521885245;1884;65201;65107;16327;65261;2342;62896;74;65472;65489;0;0
933;1521885245;1945;65195;65121;16329;65261;2342;62896;62;65468;65481;0;0
934;1521885245;2037;65181;65097;16324;65276;2344;62941;89;65462;65498;0;0
935;1521885245;1917;65191;65094;16266;65276;2344;62941;52;65432;65502;0;0
936;1521885245;2579;65190;65090;16301;65267;2350;62935;89;65425;65473;0;0
937;1521885245;2890;65208;65094;16323;65267;2350;62935;69;65443;65481;0;0
938;1521885245;2456;65200;65069;16346;65267;2350;62935;48;65476;65477;0;0
939;1521885245;2111;65202;65089;16375;65276;2346;62952;77;65477;65509;0;0
940;1521885245;1944;65183;65087;16380;65276;2346;62952;62;65414;65498;0;0
941;1521885245;2068;65206;65085;16351;65292;2333;62932;65;65446;65509;0;0
942;1521885245;1864;65224;65099;16357;65292;2333;62932;77;65436;65491;0;0
943;1521885245;2673;65199;65099;16312;65284;2367;62931;78;65459;65526;0;0
944;1521885245;2899;65206;65102;16296;65284;2367;62931;67;65461;12;0;0
945;1521885245;2270;65185;65108;16313;65284;2367;62931;56;65442;65498;0;0
946;1521885245;2139;65200;65106;16306;65293;2342;62969;73;65426;65500;0;0
947;1521885245;1926;65207;65099;16287;65293;2342;62969;101;65446;65506;0;0
948;1521885245;2119;65180;65108;16291;65278;2343;62984;44;65467;65479;0;0
949;1521885245;1885;65172;65097;16301;65278;2343;62984;80;65462;65492;0;0
950;1521885245;2676;65196;65126;16263;65278;2343;62728;66;65434;65480;0;0
951;1521885245;3032;65183;65118;16298;65266;2350;62938;73;65427;65501;0;0
952;1521885245;2253;65186;65111;16260;65266;2350;62938;80;65426;65482;0;0
953;1521885245;2117;65187;65112;16265;65308;2343;62952;47;65454;65501;0;0
954;1521885245;1911;65192;65136;16304;65308;2343;62952;72;65448;65496;0;0
955;1521885245;2120;65173;65108;16294;65052;2332;62952;73;65456;65470;0;0
956;1521885245;1872;65193;65117;16277;65271;2332;62952;53;65425;65506;0;0
957;1521885245;2473;65186;65111;16294;65271;2332;62952;95;65448;65486;0;0
958;1521885245;3074;65199;65101;16296;65272;2338;62942;88;65444;65518;0;0
959;1521885245;2183;65215;65107;16302;65272;2338;62942;77;65453;65509;0;0
960;1521885245;2188;65193;65113;16329;65276;2349;62921;60;65439;65499;0;0
961;1521885245;1868;65191;65112;16327;65276;2349;62921;58;65426;65469;0;0
962;1521885245;1928;65206;65108;16304;65276;2349;62921;63;65450;65528;0;0
963;1521885245;2455;65221;65100;16283;65264;2357;62931;70;65433;65489;0;0
964;1521885245;3003;65220;65108;16288;65264;2357;62931;69;65444;65498;0;0
965;1521885245;2337;65182;65118;16326;65281;2336;62914;64;65444;65504;0;0
966;1521885245;2011;65190;65119;16297;65281;2336;62914;90;65437;65522;0;0
967;1521885245;2067;65207;65101;16298;65259;2369;62937;86;65466;65495;0;0
968;1521885245;1865;65193;65102;16328;65259;2369;62937;90;65433;65479;0;0
969;1521885245;2057;65182;65091;16307;65259;2369;62937;96;65440;65495;0;0
970;1521885245;2618;65201;65112;16301;65273;2322;62887;104;65434;65506;0;0
971;1521885245;3011;65203;65107;16370;65273;2322;62887;51;65458;65513;0;0
972;1521885245;2331;65166;65099;16318;65251;2339;62931;82;65448;65495;0;0
973;1521885245;1969;65191;65100;16273;65251;2339;62931;92;65442;65518;0;0
974;1521885245;2104;65204;65098;16299;65251;2339;62931;77;65445;65480;0;0
975;1521885245;2039;65188;65099;16313;65284;2330;62970;58;65445;65487;0;0
976;1521885245;1938;65185;65109;16263;65284;2330;62970;80;65447;65485;0;0
977;1521885245;2628;65199;65102;16321;65275;2317;62935;93;65439;65512;0;0
978;1521885245;2999;65199;65102;16269;65275;2317;62935;100;65458;65506;0;0
979;1521885245;2424;65208;65109;16302;65264;2314;62942;101;65466;65500;0;0
980;1521885245;1934;65206;65095;16377;65264;2314;62942;83;65450;65491;0;0
981;1521885245;1962;65198;65100;16301;65264;2314;62942;60;65467;65490;0;0
982;1521885245;2062;65209;65092;16316;65288;2322;62955;85;65448;65519;0;0
983;1521885245;1919;65209;65111;16377;65288;2322;62955;82;65450;65505;0;0
984;1521885245;2583;65188;65099;16319;65295;2332;62934;99;65434;65491;0;0
985;1521885245;2908;65191;65097;16340;65295;2332;62934;74;65471;65499;0;0
986;1521885245;2441;65186;65111;16362;65295;2332;62934;70;65448;65519;0;0
987;1521885245;2127;65176;65101;16305;65282;2346;62939;84;65423;65493;0;0
988;1521885245;1938;65193;65102;16301;65282;2346;62939;71;65452;65499;0;0
989;1521885245;2062;65189;65091;16323;65275;2367;62931;83;65437;65491;0;0
990;1521885245;1923;65180;65097;16351;65275;2367;62931;74;65444;65502;0;0
991;1521885245;2503;65182;65105;16362;65284;2352;62917;83;65463;65500;0;0
992;1521885245;2860;65179;65096;16331;65284;2352;62917;52;65464;65501;0;0
993;1521885245;2474;65204;65114;16281;65284;2352;62917;70;65437;65521;0;0
994;1521885245;2167;65190;65117;16298;65293;2342;62916;101;65470;65477;0;0
995;1521885245;2002;65181;65106;16294;65293;2342;62916;87;65431;65504;0;0
996;1521885245;2125;65187;65114;16279;65296;2339;62874;76;65447;65497;0;0
997;1521885245;1895;65194;65109;16287;65296;2339;62874;55;65429;65484;0;0
998;1521885245;2709;65206;65100;16258;65296;2319;62897;104;65449;65493;0;0
999;1521885245;2929;65215;65113;16255;65286;2319;62897;88;65422;65521;0;0
1000;1521885245;2307;65212;65111;16294;65286;2319;62897;100;65460;65503;0;0
1001;1521885245;2147;65202;65101;16280;65267;2356;62937;94;65448;65507;0;0
1002;1521885245;1919;65195;65105;16249;65267;2356;62937;81;65461;65496;0;0
1003;1521885245;2143;65177;65113;16315;65290;2329;62942;54;65429;65503;0;0
1004;1521885245;2132;65201;65093;16315;65290;2329;62942;106;65445;65503;0;0
1005;1521885245;3112;65188;65095;16309;65290;2329;62942;109;65442;65502;0;0
1006;1521885245;2347;65191;65091;16360;65300;2358;62931;88;65441;65505;0;0
1007;1521885245;1735;65197;65100;16325;65300;2358;62931;65;65447;65488;0;0
1008;1521885245;2123;65207;65106;16342;65303;2360;62929;66;65431;65516;0;0
1009;1521885245;1882;65211;65115;16384;65303;2360;62929;63;65447;65515;0;0
1010;1521885245;2202;65197;65091;16366;65303;2360;62929;71;65445;65497;0;0
1011;1521885245;2853;65205;65088;16340;65266;2349;62904;40;65466;65487;0;0
1012;1521885245;2925;65187;65079;16326;65266;2349;62904;91;65449;65506;0;0
1013;1521885245;2420;65191;65086;16298;65271;2352;62937;49;65449;65514;0;0
1014;1521885246;1721;65195;65095;16296;65271;2352;62937;49;65443;65505;0;0
1015;1521885246;2140;65175;65102;16308;65284;2356;62872;61;65440;65509;0;0
1016;1521885246;1817;65185;65098;16293;65284;2356;62872;76;65434;65522;0;0
1017;1521885246;1980;65185;65117;16260;65284;2356;62872;59;65454;65506;0;0
1018;1521885246;2636;65189;65110;16293;65265;2334;62898;65;65423;65499;0;0
1019;1521885246;2974;65194;65121;16251;65265;2334;62898;68;65417;65513;0;0
1020;1521885246;2368;65204;65120;16295;65259;2336;62878;65;65440;65507;0;0
1021;1521885246;1957;65204;65100;16325;65259;2336;62878;61;65441;65523;0;0
1022;1521885246;2166;65199;65102;16294;65259;2336;62878;62;65441;65502;0;0
1023;1521885246;2031;65194;65102;16324;65298;2363;62893;80;65429;65509;0;0
1024;1521885246;2480;65198;65102;16331;65298;2363;62893;81;65431;65522;0;0
1025;1521885246;3047;65215;65103;16292;65282;2358;62909;68;65447;236;0;0
1026;1521885246;2198;65191;65096;16355;65282;2358;62909;59;65462;65507;0;0
1027;1521885246;1948;65182;65102;16337;65254;2345;62900;76;65447;65502;0;0
1028;1521885246;1906;65176;65089;16324;65254;2345;62900;74;65454;65514;0;0
1029;1521885246;1687;65188;65099;16356;65254;2345;62900;94;65442;65493;0;0
1030;1521885246;2043;65166;65105;16356;65293;2341;62943;81;65434;65500;0;0
1031;1521885246;2429;65176;65097;16317;65293;2341;62943;91;65447;65490;0;0
1032;1521885246;3189;65177;65105;16303;65284;2356;62923;56;65455;65491;0;0
1033;1521885246;2234;65160;65106;16293;65284;2356;62923;70;65425;65511;0;0
1034;1521885246;2266;65165;65118;16295;65028;2345;62875;45;65453;65496;0;0
1035;1521885246;1952;65179;65113;16327;65255;2345;62875;75;65437;65495;0;0
1036;1521885246;1935;65173;65091;16304;65255;2345;62875;86;65431;65497;0;0
1037;1521885246;2133;65187;65102;16295;65289;2383;62899;76;65468;65475;0;0
1038;1521885246;2474;65205;65106;16299;65289;2383;62899;80;65455;65472;0;0
1039;1521885246;3170;65195;65112;16284;65257;2345;62944;54;65435;65487;0;0
1040;1521885246;2166;65208;65110;16266;65257;2345;62944;71;65432;65498;0;0
1041;1521885246;2085;65191;65110;16297;65257;2345;62944;53;65449;65489;0;0
1042;1521885246;2116;65193;65097;16302;65265;2353;62927;77;65410;65496;0;0
1043;1521885246;1894;65211;65090;16299;65265;2353;62927;52;65448;65494;0;0
1044;1521885246;2157;65205;65103;16352;65271;2377;62911;67;65441;65488;0;0
1045;1521885246;2461;65219;65094;16316;65271;2377;62911;70;65432;65485;0;0
1046;1521885246;3102;65213;65106;16337;65234;2348;62923;70;65439;65502;0;0
1047;1521885246;2205;65195;65097;16346;65234;2348;62923;103;65441;65487;0;0
1048;1521885246;2027;65201;65086;16301;65234;2348;62923;81;65425;65499;0;0
1049;1521885246;2087;65202;65110;16320;65274;2360;62881;67;65443;65487;0;0
1050;1521885246;1883;65186;65106;16340;65274;2360;62881;75;65435;65496;0;0
1051;1521885246;2598;65199;65103;16295;65277;2339;62893;86;65431;65485;0;0
1052;1521885246;2912;65207;65101;16356;65277;2339;62893;65;65444;65525;0;0
1053;1521885246;2398;65179;65097;16299;65277;2339;62893;88;65436;65491;0;0
1054;1521885246;2063;65189;65094;16273;65286;2335;62889;79;65421;65509;0;0
1055;1521885246;1957;65195;65103;16294;65286;2335;62889;82;65450;65503;0;0
1056;1521885246;2057;65172;65099;16290;65257;2339;62879;72;65451;65523;0;0
1057;1521885246;1883;65170;65118;16275;65257;2339;62879;67;65442;65520;0;0
1058;1521885246;2625;65197;65113;16307;65255;2337;62872;83;65434;65512;0;0
1059;1521885246;2884;65200;65096;16304;65255;2337;62872;93;65438;65515;0;0
1060;1521885246;2252;65214;65105;16301;65255;2337;62872;72;65444;1;0;0
1061;1521885246;2139;65194;65111;16341;65245;2327;62841;60;65464;65512;0;0
1062;1521885246;1963;65173;65094;16317;65245;2327;62841;93;65455;65516;0;0
1063;1521885246;2100;65198;65109;16316;65255;2330;62837;66;65441;65511;0;0
1064;1521885246;1909;65213;65101;16330;65255;2330;62837;67;65447;65515;0;0
1065;1521885246;2704;65199;65108;16319;65255;2330;62837;73;65468;65489;0;0
1066;1521885246;3075;65200;65104;16323;65277;2332;62884;86;65465;65494;0;0
1067;1521885246;2236;65180;65091;16330;65277;2332;62884;70;65458;65527;0;0
1068;1521885246;2128;65187;65076;16333;65278;2339;62846;84;65421;65486;0;0
1069;1521885246;1964;65188;65102;16317;65278;2339;62846;105;65459;65512;0;0
1070;1521885246;2135;65202;65099;16342;65278;2343;62885;68;65458;65483;0;0
1071;1521885246;1914;65185;65095;16310;65287;2343;62885;70;65466;65493;0;0
1072;1521885246;2498;65189;65109;16304;65287;2343;62885;98;65459;65488;0;0
1073;1521885246;3067;65172;65096;16291;65272;2313;62903;128;65442;65468;0;0
1074;1521885246;2266;65191;65106;16240;65272;2313;62903;77;65430;65506;0;0
1075;1521885246;2174;65207;65116;16271;65286;2355;62894;73;65445;65514;0;0
1076;1521885246;1901;65209;65120;16293;65286;2355;62894;79;65419;65493;0;0
1077;1521885246;2057;65196;65106;16295;65286;2355;62894;75;65430;65500;0;0
1078;1521885246;2450;65201;65099;16332;65298;2312;62880;92;65440;65498;0;0
1079;1521885246;3037;65205;65104;16305;65298;2312;62880;85;65445;65490;0;0
1080;1521885246;2359;65205;65100;16275;65292;2309;62877;106;65465;65485;0;0
1081;1521885246;1653;65206;65098;16314;65292;2309;62877;68;65463;65520;0;0
1082;1521885246;2126;65176;65104;16296;65267;2349;62890;64;65445;65510;0;0
1083;1521885246;1860;65191;65093;16282;65267;2349;62890;108;65431;65517;0;0
1084;1521885246;1946;65193;65088;16294;65267;2349;62890;87;65450;65485;0;0
1085;1521885246;2634;65192;65086;16340;65277;2333;62885;90;65436;65486;0;0
1086;1521885246;2965;65192;65092;16356;65277;2333;62885;76;65446;65488;0;0
1087;1521885246;2369;65192;65093;16388;65300;2349;62904;99;65445;65470;0;0
1088;1521885246;1970;65177;65095;16372;65300;2349;62904;97;65456;65484;0;0
1089;1521885246;2156;65193;65083;16338;65300;2349;62904;66;65450;65497;0;0
1090;1521885246;2007;65200;65088;16324;65271;2355;62899;83;65438;65488;0;0
1091;1521885246;1928;65189;65091;16315;65271;2355;62899;93;65426;65515;0;0
1092;1521885246;2592;65185;65117;16337;65281;2342;62884;93;65444;65497;0;0
1093;1521885246;2930;65204;65117;16347;65281;2342;62884;71;65447;65514;0;0
1094;1521885246;2401;65174;65107;16307;65279;2321;62863;95;65448;65480;0;0
1095;1521885246;1936;65209;65133;16303;65279;2321;62863;62;65457;65497;0;0
1096;1521885246;1964;65205;65123;16306;65279;2321;62863;27;65457;65506;0;0
1097;1521885246;2042;65167;65128;16283;65290;2335;62856;60;65434;65479;0;0
1098;1521885246;1922;65203;65113;16293;65290;2335;62856;86;65441;65502;0;0
1099;1521885246;2581;65193;65117;16277;65300;2333;62913;85;65435;65487;0;0
1100;1521885246;2894;65181;65100;16236;65300;2333;62913;76;65457;65489;0;0
1101;1521885246;2424;65208;65106;16258;65300;2333;62913;83;65464;65481;0;0
1102;1521885246;2076;65204;65102;16292;65270;2299;62888;72;65429;65483;0;0
1103;1521885246;1941;65205;65077;16262;65270;2299;62888;63;65433;65489;0;0
1104;1521885246;2036;65208;65101;16300;65278;2321;62882;85;65426;65491;0;0
1105;1521885246;2473;65226;65102;16358;65278;2321;62882;48;65441;65488;0;0
1106;1521885246;3120;65201;65086;16333;65269;2289;62856;70;65468;65496;0;0
1107;1521885246;2165;65206;65099;16325;65269;2289;62856;70;65454;65510;0;0
1108;1521885246;2035;65206;65103;16302;65269;2289;62856;60;65427;65509;0;0
1109;1521885246;2060;65193;65105;16254;65302;2299;62913;54;65442;65528;0;0
1110;1521885246;1940;65195;65105;16255;65302;2299;62913;57;65461;65511;0;0
1111;1521885246;2112;65193;65104;16299;65258;2338;62877;75;65448;65523;0;0
1112;1521885246;2496;65210;65104;16301;65258;2338;62877;99;65446;65499;0;0
1113;1521885246;3158;65206;65111;16318;65258;2323;62894;79;65477;65522;0;0
1114;1521885246;2199;65193;65116;16294;65280;2323;62894;82;65455;65507;0;0
1115;1521885246;2026;65198;65125;16318;65280;2323;62894;82;65466;65514;0;0
1116;1521885246;2069;65191;65113;16359;65273;2365;62904;80;65475;65502;0;0
1117;1521885246;1915;65176;65096;16385;65273;2365;62904;94;65429;65525;0;0
1118;1521885246;2108;65182;65101;16365;65281;2343;62890;66;65461;65481;0;0
1119;1521885246;2442;65187;65092;16353;65281;2343;62890;80;65426;65514;0;0
1120;1521885246;3008;65182;65084;16335;65281;2343;62890;75;65445;65494;0;0
1121;1521885246;2369;65193;65092;16335;65294;2338;62939;78;65431;65492;0;0
1122;1521885246;2021;65189;65090;16382;65294;2338;62939;97;65438;65504;0;0
1123;1521885246;2111;65185;65082;16357;65266;2356;62940;67;65445;65494;0;0
1124;1521885246;1908;65184;65091;16323;65266;2356;62940;80;65435;65500;0;0
1125;1521885246;2152;65185;65112;16341;65266;2356;62940;41;65473;65485;0;0
1126;1521885246;2448;65177;65094;16255;65259;2323;62922;80;65457;65508;0;0
1127;1521885246;2997;65197;65109;16263;65259;2323;62922;76;65430;65519;0;0
1128;1521885246;2362;65183;65110;16299;65265;2352;62922;80;65444;65523;0;0
1129;1521885246;1986;65176;65119;16295;65265;2352;62922;75;65451;65501;0;0
1130;1521885246;2116;65204;65114;16316;65252;2355;62904;94;65429;65472;0;0
1131;1521885246;1865;65206;65136;16385;65252;2355;62904;76;65442;65481;0;0
1132;1521885246;2683;65203;65122;16385;65252;2355;62904;82;65456;65497;0;0
1133;1521885246;3048;65182;65117;16337;65270;2350;62912;40;65460;65473;0;0
1134;1521885246;2226;65185;65111;16333;65270;2350;62912;46;65454;65499;0;0
1135;1521885246;2127;65195;65103;16289;65264;2371;62913;81;65464;65505;0;0
1136;1521885246;1857;65205;65086;16344;65264;2371;62913;50;65445;65498;0;0
1137;1521885246;2126;65175;65084;16350;65264;2371;62913;80;65448;65518;0;0
1138;1521885246;2015;65167;65070;16351;65294;2350;62919;60;65423;65514;0;0
1139;1521885246;2449;65184;65066;16358;65294;2350;62919;61;65428;65535;0;0
1140;1521885246;3067;65165;65077;16335;65286;2338;62897;83;65458;65481;0;0
1141;1521885246;2209;65185;65068;16307;65286;2338;62897;51;65452;65511;0;0
1142;1521885246;2139;65200;65088;16356;65256;2347;62887;71;65432;65513;0;0
1143;1521885246;1871;65194;65106;16341;65256;2347;62887;57;65448;65505;0;0
1144;1521885246;1939;65208;65104;16292;65256;2347;62887;73;65453;65518;0;0
1145;1521885246;2050;65224;65103;16307;65282;2377;62886;77;65442;65508;0;0
1146;1521885246;2433;65192;65115;16287;65282;2377;62886;44;65418;65482;0;0
1147;1521885246;3070;65203;65110;16305;65304;2354;62888;40;65435;65486;0;0
1148;1521885246;2167;65202;65114;16359;65304;2354;62888;60;65428;65492;0;0
1149;1521885246;2199;65184;65112;16297;65304;2343;62907;76;65420;65494;0;0
1150;1521885246;1963;65195;65110;16297;65297;2343;62907;73;65429;65504;0;0
1151;1521885246;1976;65183;65119;16338;65297;2343;62907;39;65458;65503;0;0
1152;1521885246;2079;65176;65116;16333;65256;2333;62893;52;65434;65504;0;0
1153;1521885246;2411;65188;65093;16342;65256;2333;62893;58;65447;65508;0;0
1154;1521885246;3091;65170;65099;16357;65265;2352;62889;78;65425;65514;0;0
1155;1521885246;2165;65200;65095;16338;65265;2352;62889;66;65441;65498;0;0
1156;1521885246;2038;65183;65094;16286;65265;2352;62889;54;65410;65496;0;0
1157;1521885246;2067;65181;65102;16293;65273;2339;62880;52;65400;65497;0;0
1158;1521885246;1918;65179;65097;16315;65273;2339;62880;54;65443;65496;0;0
1159;1521885246;2662;65187;65096;16312;65236;2356;62876;61;65438;65497;0;0
1160;1521885246;2980;65178;65100;16295;65236;2356;62876;60;65441;65487;0;0
1161;1521885246;2375;65208;65122;16276;65271;2341;62883;68;65412;65503;0;0
1162;1521885246;1935;65204;65121;16292;65271;2341;62883;58;65431;65508;0;0
1163;1521885246;2009;65177;65125;16313;65271;2341;62883;72;65439;65472;0;0
1164;1521885246;2043;65172;65105;16234;65252;2347;62879;85;65436;65471;0;0
1165;1521885246;1928;65199;65112;16250;65252;2347;62879;69;65416;65504;0;0
1166;1521885246;2600;65195;65098;16271;65276;2330;62929;44;65448;65498;0;0
1167;1521885246;2910;65196;65111;16243;65276;2330;62929;62;65419;65498;0;0
1168;1521885246;2467;65202;65100;16327;65276;2330;62929;71;65448;65487;0;0
1169;1521885246;2102;65184;65097;16305;65268;2324;62903;67;65438;65508;0;0
1170;1521885246;1937;65196;65101;16293;65268;2324;62903;68;65416;65490;0;0
1171;1521885246;2072;65183;65094;16292;65275;2335;62886;74;65445;65491;0;0
1172;1521885246;1880;65201;65095;16286;65275;2335;62886;110;65425;65508;0;0
1173;1521885246;2662;65202;65098;16315;65278;2340;62888;92;65433;65503;0;0
1174;1521885246;2880;65207;65121;16319;65278;2340;62888;95;65441;65489;0;0
1175;1521885246;2247;65201;65120;16293;65278;2340;62888;44;65444;65490;0;0
1176;1521885246;2096;65216;65114;16296;65281;2324;62895;78;65430;65498;0;0
1177;1521885246;1915;65202;65130;16342;65281;2324;62895;99;65452;65510;0;0
1178;1521885246;2075;65179;65111;16359;65307;2328;62912;69;65453;65493;0;0
1179;1521885246;2442;65182;65122;16347;65307;2328;62912;60;65457;65484;0;0
1180;1521885246;3158;65190;65100;16351;65307;2328;62912;64;65467;65507;0;0
1181;1521885246;2303;65189;65105;16303;65280;2320;62932;79;65447;65515;0;0
1182;1521885246;2008;65179;65116;16288;65280;2320;62932;40;65423;65495;0;0
1183;1521885246;2069;65167;65113;16332;65291;2343;62914;52;65442;65515;0;0
1184;1521885246;1896;65152;65097;16324;65291;2343;62914;61;65426;65475;0;0
1185;1521885246;2122;65178;65101;16299;65291;2333;62900;68;65438;65500;0;0
1186;1521885246;2446;65174;65090;16318;65266;2333;62900;67;65435;65483;0;0
1187;1521885246;2993;65184;65107;16294;65266;2333;62900;72;65434;65488;0;0
1188;1521885246;2343;65186;65116;16310;65298;2312;62873;78;65447;65504;0;0
1189;1521885246;2021;65184;65111;16311;65298;2312;62873;70;65443;65491;0;0
1190;1521885246;2118;65186;65113;16319;65291;2358;62885;62;65427;65515;0;0
1191;1521885246;1872;65200;65114;16312;65291;2358;62885;68;65438;65511;0;0
1192;1521885246;2010;65194;65111;16344;65291;2358;62885;62;65428;65486;0;0
1193;1521885246;2490;65189;65121;16298;65276;2378;62912;56;65433;65490;0;0
1194;1521885246;2991;65178;65128;16331;65276;2378;62912;57;65447;65506;0;0
1195;1521885246;2378;65180;65125;16327;65285;2355;62886;62;65431;65482;0;0
1196;1521885246;2006;65181;65113;16295;65285;2355;62886;52;65430;65515;0;0
1197;1521885246;2148;65202;65112;16304;65274;2360;62906;59;65447;65526;0;0
1198;1521885246;1858;65195;65119;16339;65274;2360;62906;59;65441;65510;0;0
1199;1521885246;1950;65199;65094;16295;65274;2360;62906;94;65418;65524;0;0
1200;1521885246;2619;65196;65095;16292;65268;2376;62866;57;65451;65506;0;0
1201;1521885246;2955;65172;65087;16292;65268;2376;62866;79;65445;65501;0;0
1202;1521885246;2367;65200;65108;16284;65287;2363;62899;51;65419;65477;0;0
1203;1521885246;1960;65207;65127;16312;65287;2363;62899;46;65461;65496;0;0
1204;1521885246;2168;65214;65132;16344;65287;2363;62899;48;65451;65505;0;0
1205;1521885246;2046;65204;65114;16294;65285;2351;62875;75;65435;65526;0;0
1206;1521885246;2406;65207;65116;16308;65285;2351;62875;62;65443;65504;0;0
1207;1521885246;3063;65205;65119;16297;65259;2363;62876;68;65455;65508;0;0
1208;1521885247;2202;65208;65110;16333;65259;2363;62876;108;65454;65495;0;0
1209;1521885247;2191;65184;65113;16359;65268;2360;62881;85;65439;65493;0;0
1210;1521885247;1880;65193;65098;16335;65268;2360;62881;72;65422;65517;0;0
1211;1521885247;1980;65213;65095;16313;65268;2360;62881;76;65421;65523;0;0
1212;1521885247;2077;65213;65106;16334;65262;2358;62873;78;65451;65527;0;0
1213;1521885247;2482;65216;65108;16321;65262;2358;62873;86;65451;65521;0;0
1214;1521885247;3096;65202;65122;16316;65263;2331;62894;71;65419;65516;0;0
1215;1521885247;2185;65189;65111;16319;65263;2331;62894;93;65439;65491;0;0
1216;1521885247;2212;65189;65117;16292;65263;2331;62894;38;65453;65513;0;0
1217;1521885247;2054;65197;65126;16294;65257;2324;62904;77;65426;65515;0;0
1218;1521885247;1954;65191;65126;16292;65257;2324;62904;67;65466;65498;0;0
1219;1521885247;2083;65175;65132;16298;65254;2361;62882;99;65450;65508;0;0
1220;1521885247;2507;65183;65126;16336;65254;2361;62882;49;65427;65477;0;0
1221;1521885247;3152;65169;65116;16302;65265;2353;62878;65;65453;65493;0;0
1222;1521885247;2176;65194;65128;16275;65265;2353;62878;66;65454;65501;0;0
1223;1521885247;2035;65186;65136;16324;65265;2353;62878;78;65440;65525;0;0
1224;1521885247;2061;65146;65129;16294;65277;2361;62868;64;65428;65502;0;0
1225;1521885247;1933;65174;65118;16276;65277;2361;62868;78;65438;65500;0;0
1226;1521885247;2111;65200;65119;16298;65256;2372;62886;42;65407;65504;0;0
1227;1521885247;2475;65188;65108;16309;65256;2372;62886;55;65420;65479;0;0
1228;1521885247;3178;65199;65106;16273;65256;2367;62879;69;65435;65511;0;0
1229;1521885247;2200;65198;65121;16334;65260;2367;62879;69;65460;65507;0;0
1230;1521885247;1997;65177;65082;16321;65260;2367;62879;80;65453;65494;0;0
1231;1521885247;2063;65189;65096;16318;65272;2385;62872;92;65438;65510;0;0
1232;1521885247;1895;65179;65104;16312;65272;2385;62872;84;65432;65504;0;0
1233;1521885247;2626;65204;65121;16313;65268;2362;62913;87;65449;65485;0;0
1234;1521885247;2906;65191;65131;16296;65268;2362;62913;89;65441;65524;0;0
1235;1521885247;2314;65197;65133;16313;65268;2362;62913;53;65447;65495;0;0
1236;1521885247;2134;65210;65133;16316;65261;2340;62899;90;65427;65494;0;0
1237;1521885247;1948;65205;65138;16305;65261;2340;62899;86;65429;65497;0;0
1238;1521885247;2075;65214;65108;16310;65257;2396;62914;71;65427;65515;0;0
1239;1521885247;1896;65191;65109;16294;65257;2396;62914;87;65414;65514;0;0
1240;1521885247;2660;65208;65115;16320;65243;2381;62874;96;65431;65508;0;0
1241;1521885247;2884;65183;65132;16300;65243;2381;62874;68;65459;13;0;0
1242;1521885247;2238;65193;65122;16246;65243;2381;62874;91;65431;65535;0;0
1243;1521885247;2127;65192;65108;16276;65295;2350;62894;79;65432;65498;0;0
1244;1521885247;1924;65179;65118;16295;65295;2350;62894;95;65438;65495;0;0
1245;1521885247;2106;65171;65102;16296;65265;2351;62892;69;65442;65506;0;0
1246;1521885247;1865;65187;65104;16302;65265;2351;62892;46;65454;65520;0;0
1247;1521885247;2694;65189;65104;16355;65265;2351;62892;46;65443;65513;0;0
1248;1521885247;3073;65194;65107;16310;65235;2331;62884;95;65420;65519;0;0
1249;1521885247;2242;65193;65104;16347;65235;2331;62884;89;65433;65525;0;0
1250;1521885247;2134;65181;65117;16352;65265;2366;62913;78;65447;65510;0;0
1251;1521885247;1925;65193;65119;16332;65265;2366;62913;74;65435;65514;0;0
1252;1521885247;2134;65192;65121;16326;65265;2366;62913;82;65440;65509;0;0
1253;1521885247;1996;65178;65115;16358;65236;2337;62921;50;65443;65492;0;0
1254;1521885247;2442;65172;65122;16358;65236;2337;62921;58;65439;65468;0;0
1255;1521885247;3027;65192;65124;16332;65250;2380;62883;80;65463;65506;0;0
1256;1521885247;2191;65188;65121;16312;65250;2380;62883;78;65463;65480;0;0
1257;1521885247;2181;65183;65105;16300;65234;2345;62881;97;65451;65503;0;0
1258;1521885247;1868;65204;65115;16303;65234;2345;62881;69;65439;65481;0;0
1259;1521885247;1964;65198;65112;16321;65234;2345;62881;95;65442;65501;0;0
1260;1521885247;2554;65204;65111;16361;65272;2345;62896;74;65457;65484;0;0
1261;1521885247;2949;65187;65130;16349;65272;2345;62896;76;65447;65515;0;0
1262;1521885247;2352;65197;65115;16302;65265;2349;62883;64;65431;65521;0;0
1263;1521885247;1972;65191;65125;16311;65265;2349;62883;70;65438;65503;0;0
1264;1521885247;2135;65174;65123;16321;65265;2359;62889;63;65453;65518;0;0
1265;1521885247;1858;65183;65108;16293;65256;2359;62889;88;65435;65499;0;0
1266;1521885247;1934;65198;65104;16274;65256;2359;62889;73;65438;65499;0;0
1267;1521885247;2626;65200;65109;16294;65279;2367;62893;87;65434;65509;0;0
1268;1521885247;2955;65192;65094;16258;65279;2367;62893;67;65432;65483;0;0
1269;1521885247;2398;65199;65111;16294;65270;2370;62889;62;65470;65488;0;0
1270;1521885247;1962;65176;65109;16359;65270;2370;62889;70;65429;65497;0;0
1271;1521885247;2074;65190;65104;16292;65270;2370;62889;52;65434;65505;0;0
1272;1521885247;2049;65202;65096;16299;65252;2350;62883;74;65438;65513;0;0
1273;1521885247;1928;65202;65119;16347;65252;2350;62883;64;65459;65507;0;0
1274;1521885247;2644;65197;65120;16319;65219;2345;62869;75;65419;65498;0;0
1275;1521885247;2947;65223;65126;16330;65219;2345;62869;70;65440;65507;0;0
1276;1521885247;2421;65196;65119;16348;65247;2353;62907;54;65430;65497;0;0
1277;1521885247;1933;65191;65105;16321;65247;2353;62907;96;65428;65510;0;0
1278;1521885247;1979;65227;65115;16316;65247;2353;62907;70;65445;65487;0;0
1279;1521885247;2044;65203;65128;16369;65239;2391;62926;67;65441;65491;0;0
1280;1521885247;1903;65195;65096;16340;65239;2391;62926;69;65437;65513;0;0
1281;1521885247;2626;65201;65094;16330;65248;2392;62887;77;65427;65498;0;0
1282;1521885247;2902;65188;65095;16316;65248;2392;62887;65;65450;65520;0;0
1283;1521885247;2439;65189;65103;16295;65248;2392;62887;82;65430;65508;0;0
1284;1521885247;2121;65208;65115;16304;65258;2380;62846;71;65441;65514;0;0
1285;1521885247;1965;65177;65121;16298;65258;2380;62846;88;65464;65516;0;0
1286;1521885247;2083;65177;65126;16287;65251;2389;62901;80;65430;65510;0;0
1287;1521885247;2486;65174;65123;16318;65251;2389;62901;70;65454;65496;0;0
1288;1521885247;3150;65187;65120;16285;65227;2362;62866;61;65439;65489;0;0
1289;1521885247;2180;65183;65128;16266;65227;2362;62866;69;65436;65471;0;0
1290;1521885247;2046;65190;65157;16306;65227;2362;62866;85;65449;65499;0;0
1291;1521885247;2077;65177;65134;16294;65252;2372;62888;81;65458;65528;0;0
1292;1521885247;1920;65180;65119;16275;65252;2372;62888;61;65449;65506;0;0
1293;1521885247;2065;65196;65118;16311;65235;2368;62886;85;65459;65502;0;0
1294;1521885247;2456;65182;65123;16292;65235;2368;62886;82;65448;65510;0;0
1295;1521885247;3199;65209;65115;16296;65235;2368;62886;61;65443;65529;0;0
1296;1521885247;2327;65182;65118;16354;65254;2380;62879;91;65437;65515;0;0
1297;1521885247;2044;65184;65114;16325;65254;2380;62879;94;65460;65511;0;0
1298;1521885247;2091;65215;65118;16320;65234;2396;62896;52;65418;65522;0;0
1299;1521885247;1905;65197;65121;16373;65234;2396;62896;84;65431;65522;0;0
1300;1521885247;2153;65183;65116;16319;65234;2419;62893;76;65459;65504;0;0
1301;1521885247;2441;65174;65110;16313;65232;2419;62893;67;65438;65499;0;0
1302;1521885247;3011;65177;65093;16323;65232;2419;62893;59;65455;65489;0;0
1303;1521885247;2354;65199;65106;16292;65274;2390;62908;73;65436;65491;0;0
1304;1521885247;2012;65188;65124;16282;65274;2390;62908;88;65455;65512;0;0
1305;1521885247;2122;65203;65114;16307;65225;2400;62889;71;65441;65507;0;0
1306;1521885247;1849;65190;65125;16298;65225;2400;62889;84;65450;65516;0;0
1307;1521885247;2613;65185;65126;16319;65225;2382;62889;61;65456;65478;0;0
1308;1521885247;2910;65192;65122;16304;65231;2382;62889;82;65432;65494;0;0
1309;1521885247;2205;65198;65121;16324;65231;2382;62889;68;65458;65500;0;0
1310;1521885247;2147;65201;65120;16333;65213;2415;62862;87;65453;65494;0;0
1311;1521885247;1929;65197;65126;16302;65213;2415;62862;86;65434;65481;0;0
1312;1521885247;2137;65201;65116;16287;65232;2391;62888;72;65451;65531;0;0
1313;1521885247;1880;65196;65133;16312;65232;2391;62888;88;65446;65500;0;0
1314;1521885247;2556;65195;65112;16297;65232;2391;62888;67;65437;65506;0;0
1315;1521885247;3044;65213;65112;16298;65236;2403;62869;52;65460;65528;0;0
1316;1521885247;2223;65197;65119;16328;65236;2403;62869;60;65432;65529;0;0
1317;1521885247;2147;65188;65116;16290;65236;2417;62888;87;65452;65508;0;0
1318;1521885247;1917;65189;65109;16279;65236;2417;62888;60;65434;65508;0;0
1319;1521885247;2172;65184;65126;16326;65236;2417;62888;71;65442;65484;0;0
1320;1521885247;2045;65176;65122;16317;65218;2432;62840;69;65426;65496;0;0
1321;1521885247;2456;65191;65105;16313;65218;2432;62840;67;65450;65517;0;0
1322;1521885247;3107;65175;65119;16339;65227;2419;62886;51;65442;65502;0;0
1323;1521885247;2242;65174;65123;16287;65227;2419;62886;101;65425;65495;0;0
1324;1521885247;2212;65199;65120;16301;65251;2442;62890;88;65453;65521;0;0
1325;1521885247;1874;65181;65125;16321;65251;2442;62890;98;65452;65514;0;0
1326;1521885247;1940;65174;65110;16306;65251;2442;62890;96;65442;65496;0;0
1327;1521885247;2056;65183;65129;16292;65229;2384;62853;82;65420;65499;0;0
1328;1521885247;2495;65189;65102;16311;65229;2384;62853;93;65464;65516;0;0
1329;1521885247;3080;65184;65124;16280;65228;2402;62894;69;65436;65513;0;0
1330;1521885247;2182;65185;65135;16299;65228;2402;62894;66;65419;65498;0;0
1331;1521885247;2184;65166;65121;16300;65228;2402;62886;51;65445;65516;0;0
1332;1521885247;2020;65159;65116;16297;65255;2390;62886;65;65435;65474;0;0
1333;1521885247;1934;65173;65130;16284;65255;2390;62886;90;65447;65493;0;0
1334;1521885247;2597;65179;65111;16290;65261;2414;62907;71;65460;65505;0;0
1335;1521885247;2974;65191;65117;16293;65261;2414;62907;103;65440;65522;0;0
1336;1521885247;2405;65198;65116;16307;65286;2398;62875;77;65451;65504;0;0
1337;1521885247;1956;65180;65111;16294;65286;2398;62875;101;65429;65477;0;0
1338;1521885247;1952;65195;65118;16288;65286;2398;62875;83;65442;65496;0;0
1339;1521885247;2030;65191;65127;16320;65290;2388;62876;95;65469;65511;0;0
1340;1521885247;1961;65191;65117;16297;65290;2388;62876;71;65420;65501;0;0
1341;1521885247;2620;65212;65108;16295;65261;2390;62898;70;65458;65482;0;0
1342;1521885247;2931;65204;65123;16328;65261;2390;62898;74;65419;65494;0;0
1343;1521885247;2410;65189;65116;16305;65261;2423;62897;76;65443;65496;0;0
1344;1521885247;1921;65199;65107;16294;65263;2423;62897;94;65479;65511;0;0
1345;1521885247;1929;65201;65123;16359;65263;2423;62897;66;65428;65520;0;0
1346;1521885247;2028;65187;65116;16369;65287;2416;62904;68;65432;65509;0;0
1347;1521885247;1870;65208;65107;16305;65287;2416;62904;81;65461;65493;0;0
1348;1521885247;2628;65202;65110;16322;65261;2388;62904;89;65442;65504;0;0
1349;1521885247;2879;65174;65117;16317;65261;2388;62904;90;65444;65495;0;0
1350;1521885247;2413;65188;65125;16263;65261;2388;62904;57;65430;65502;0;0
1351;1521885247;2136;65178;65125;16310;65237;2392;62922;83;65447;65481;0;0
1352;1521885247;1949;65172;65122;16324;65237;2392;62922;90;65439;65518;0;0
1353;1521885247;2094;65200;65116;16287;65253;2425;62919;89;65445;65501;0;0
1354;1521885247;1897;65184;65138;16303;65253;2425;62919;81;65444;65509;0;0
1355;1521885247;2661;65195;65111;16290;65264;2390;62887;72;65451;65491;0;0
1356;1521885247;2878;65199;65126;16280;65264;2390;62887;44;65433;65492;0;0
1357;1521885247;2247;65184;65121;16294;65264;2390;62887;80;65472;65524;0;0
1358;1521885247;2113;65170;65125;16294;65265;2398;62902;70;65450;65486;0;0
1359;1521885247;1939;65207;65132;16299;65265;2398;62902;57;65450;65489;0;0
1360;1521885247;2131;65202;65132;16329;65239;2413;62885;105;65456;65497;0;0
1361;1521885247;2410;65211;65117;16303;65239;2413;62885;104;65415;65513;0;0
1362;1521885247;3168;65206;65119;16310;65239;2413;62885;61;65454;65488;0;0
1363;1521885247;2360;65170;65105;16356;65262;2395;62883;70;65440;65505;0;0
1364;1521885247;2007;65165;65108;16299;65262;2395;62883;108;65451;65512;0;0
1365;1521885247;2080;65190;65118;16311;65259;2401;62882;79;65430;65499;0;0
1366;1521885247;1938;65184;65115;16338;65259;2401;62882;69;65445;65505;0;0
1367;1521885247;2120;65181;65111;16287;65259;2401;62867;82;65443;65493;0;0
1368;1521885247;2373;65194;65105;16310;65235;2417;62867;97;65462;65518;0;0
1369;1521885247;2965;65188;65116;16316;65235;2417;62867;117;65439;65490;0;0
1370;1521885247;2319;65196;65114;16300;65227;2432;62856;72;65438;65512;0;0
1371;1521885247;1992;65173;65124;16300;65227;2432;62856;61;65444;65500;0;0
1372;1521885247;2099;65163;65132;16289;65241;2428;62914;90;65431;65491;0;0
1373;1521885247;1850;65183;65122;16292;65241;2428;62914;63;65443;65492;0;0
1374;1521885247;1964;65192;65140;16303;65241;2428;62914;71;65439;65524;0;0
1375;1521885247;2631;65199;65120;16323;65241;2398;62889;60;65470;65494;0;0
1376;1521885247;2995;65215;65117;16308;65241;2398;62889;88;65445;65503;0;0
1377;1521885247;2374;65181;65121;16326;65263;2401;62874;64;65433;65524;0;0
1378;1521885247;1973;65185;65107;16331;65263;2401;62874;55;65423;65499;0;0
1379;1521885247;2137;65193;65118;16308;65242;2401;62882;63;65440;65488;0;0
1380;1521885247;1836;65191;65125;16326;65242;2401;62882;81;65472;65513;0;0
1381;1521885247;2492;65202;65115;16313;65242;2401;62882;84;65456;65498;0;0
1382;1521885247;3064;65204;65123;16307;65249;2368;62858;77;65433;65502;0;0
1383;1521885247;2202;65199;65109;16297;65249;2368;62858;90;65445;65496;0;0
1384;1521885247;2144;65176;65115;16294;65251;2386;62878;92;65447;65501;0;0
1385;1521885247;1881;65192;65126;16306;65251;2386;62878;64;65459;65500;0;0
1386;1521885247;2136;65191;65131;16329;65251;2386;62878;89;65449;65492;0;0
1387;1521885247;2037;65182;65125;16296;65235;2402;62868;92;65456;65535;0;0
1388;1521885247;2444;65194;65115;16324;65235;2402;62868;96;65456;65496;0;0
1389;1521885247;3083;65174;65133;16312;65253;2381;62900;64;65457;65496;0;0
1390;1521885247;2205;65192;65109;16255;65253;2381;62900;87;65450;2;0;0
1391;1521885247;2181;65201;65131;16320;65245;2395;62893;81;65440;65506;0;0
1392;1521885247;1869;65171;65130;16335;65245;2395;62893;63;65440;1;0;0
1393;1521885247;1952;65172;65119;16314;65245;2395;62893;73;65443;65483;0;0
1394;1521885247;2060;65191;65123;16313;65227;2375;62922;96;65462;65481;0;0
1395;1521885247;2443;65181;65108;16338;65227;2375;62922;77;65427;65499;0;0
1396;1521885247;3100;65198;65116;16275;65215;2408;62923;53;65445;65491;0;0
1397;1521885247;2177;65195;65111;16302;65215;2408;62923;69;65451;65486;0;0
1398;1521885247;2205;65180;65122;16309;65215;2408;62923;70;65450;65513;0;0
1399;1521885247;2070;65197;65106;16305;65224;2397;62892;89;65463;65493;0;0
1400;1521885247;1933;65203;65116;16292;65224;2397;62892;68;65434;65503;0;0
1401;1521885247;2074;65188;65115;16292;65219;2402;62926;60;65453;65490;0;0
1402;1521885247;2470;65200;65133;16294;65219;2402;62926;89;65453;65522;0;0
1403;1521885248;3129;65191;65119;16321;65219;2403;62895;91;65471;65508;0;0
1404;1521885248;2158;65165;65114;16278;65219;2403;62895;85;65468;65535;0;0
1405;1521885248;2020;65196;65124;16287;65219;2403;62895;72;65454;65526;0;0
1406;1521885248;2065;65211;65130;16320;65194;2418;62936;73;65450;65495;0;0
1407;1521885248;1927;65204;65116;16325;65194;2418;62936;82;65445;65521;0;0
1408;1521885248;2112;65199;65135;16344;65217;2404;62915;96;65448;65515;0;0
1409;1521885248;2434;65200;65123;16351;65217;2404;62915;96;65445;65483;0;0
1410;1521885248;3193;65198;65111;16314;65217;2404;62888;47;65438;65520;0;0
1411;1521885248;2366;65200;65117;16314;65203;2410;62888;37;65451;65474;0;0
1412;1521885248;2061;65196;65118;16346;65203;2410;62888;64;65472;65514;0;0
1413;1521885248;2095;65186;65099;16356;65223;2424;62909;81;65423;65496;0;0
1414;1521885248;1912;65198;65104;16312;65223;2424;62909;95;65451;65517;0;0
1415;1521885248;2589;65194;65108;16327;65209;2448;62911;88;65439;65484;0;0
1416;1521885248;2886;65186;65107;16287;65209;2448;62911;95;65435;65535;0;0
1417;1521885248;2256;65212;65127;16301;65209;2448;62911;88;65445;65491;0;0
1418;1521885248;2121;65167;65128;16275;65224;2407;62916;84;65454;65490;0;0
1419;1521885248;1945;65182;65111;16245;65224;2407;62916;59;65441;65497;0;0
1420;1521885248;2080;65184;65136;16258;65215;2410;62922;78;65466;65488;0;0
1421;1521885248;1881;65171;65139;16297;65215;2410;62922;64;65431;65509;0;0
1422;1521885248;2601;65187;65143;16310;65209;2433;62906;86;65436;65489;0;0
1423;1521885248;2857;65186;65141;16303;65209;2433;62906;72;65447;65476;0;0
1424;1521885248;2239;65184;65125;16368;65209;2433;62906;73;65442;65507;0;0
1425;1521885248;2157;65214;65112;16351;65212;2445;62893;85;65429;65485;0;0
1426;1521885248;1920;65212;65114;16346;65212;2445;62893;58;65444;65506;0;0
1427;1521885248;2114;65200;65104;16358;65204;2427;62942;80;65447;65507;0;0
1428;1521885248;1871;65187;65108;16340;65204;2427;62942;77;65430;65495;0;0
1429;1521885248;3167;65179;65102;16361;65204;2427;62942;71;65435;65520;0;0
1430;1521885248;3198;65173;65096;16341;65234;2391;62917;95;65454;65512;0;0
1431;1521885248;2282;65197;65107;16340;65234;2391;62917;67;65431;65516;0;0
1432;1521885248;2174;65187;65108;16366;65227;2405;62906;67;65437;65515;0;0
1433;1521885248;1911;65195;65115;16348;65227;2405;62906;90;65458;65509;0;0
1434;1521885248;2151;65197;65108;16302;65227;2405;62906;82;65457;65499;0;0
1435;1521885248;1748;65188;65129;16325;65200;2431;62906;43;65442;65490;0;0
1436;1521885248;2460;65187;65123;16250;65200;2431;62906;52;65470;65525;0;0
1437;1521885248;3050;65204;65126;16258;65215;2433;62911;68;65435;65521;0;0
1438;1521885248;2207;65186;65123;16293;65215;2433;62911;74;65430;65489;0;0
1439;1521885248;2203;65191;65117;16278;65234;2415;62905;85;65423;65514;0;0
1440;1521885248;1899;65197;65123;16257;65234;2415;62905;51;65441;65506;0;0
1441;1521885248;1956;65201;65141;16292;65234;2415;62905;49;65443;65492;0;0
1442;1521885248;2623;65202;65125;16305;65228;2408;62916;97;65446;65504;0;0
1443;1521885248;2983;65217;65119;16305;65228;2408;62916;83;65418;65485;0;0
1444;1521885248;2369;65181;65110;16337;65202;2419;62934;94;65444;65498;0;0
1445;1521885248;1970;65185;65107;16328;65202;2419;62934;72;65466;65504;0;0
1446;1521885248;2141;65203;65098;16350;65202;2419;62918;104;65440;65522;0;0
1447;1521885248;2030;65181;65122;16372;65237;2412;62918;92;65427;65498;0;0
1448;1521885248;1946;65190;65107;16348;65237;2412;62918;84;65445;65508;0;0
1449;1521885248;2632;65195;65089;16370;65241;2382;62922;93;65436;65486;0;0
1450;1521885248;2995;65184;65098;16351;65241;2382;62922;80;65441;65494;0;0
1451;1521885248;2402;65175;65118;16310;65219;2363;62912;57;65419;65488;0;0
1452;1521885248;1967;65186;65130;16293;65219;2363;62912;59;65458;65518;0;0
1453;1521885248;1960;65170;65117;16296;65219;2363;62912;90;65437;65515;0;0
1454;1521885248;2045;65165;65116;16278;65239;2394;62915;73;65457;65501;0;0
1455;1521885248;1914;65180;65134;16297;65239;2394;62915;64;65428;65524;0;0
1456;1521885248;2619;65171;65117;16255;65232;2370;62900;101;65462;65510;0;0
1457;1521885248;2964;65187;65131;16274;65232;2370;62900;94;65462;65502;0;0
1458;1521885248;2423;65199;65127;16289;65244;2404;62937;71;65445;2;0;0
1459;1521885248;1925;65191;65125;16295;65244;2404;62937;110;65442;65522;0;0
1460;1521885248;1981;65191;65121;16280;65244;2404;62937;68;65437;4;0;0
1461;1521885248;2055;65216;65124;16294;65222;2415;62909;96;65456;65503;0;0
1462;1521885248;2481;65191;65128;16288;65222;2415;62909;90;65436;65491;0;0
1463;1521885248;3137;65218;65121;16309;65243;2408;62918;82;65447;65521;0;0
1464;1521885248;2183;65182;65124;16324;65243;2408;62918;58;65439;65513;0;0
1465;1521885248;2258;65194;65108;16306;65243;2408;62918;49;65445;65522;0;0
1466;1521885248;2053;65198;65105;16296;65244;2405;62958;75;65435;65513;0;0
1467;1521885248;1859;65212;65122;16351;65244;2405;62958;43;65447;65493;0;0
1468;1521885248;2059;65180;65122;16329;65201;2401;62910;87;65427;65495;0;0
1469;1521885248;2434;65194;65116;16311;65201;2401;62910;61;65452;65525;0;0
1470;1521885248;3144;65175;65118;16301;65211;2413;62955;93;65456;65508;0;0
1471;1521885248;2158;65180;65124;16318;65211;2413;62955;95;65446;65519;0;0
1472;1521885248;2013;65182;65129;16334;65211;2413;62955;78;65464;65509;0;0
1473;1521885248;2073;65187;65135;16333;65222;2398;62906;107;65454;65504;0;0
1474;1521885248;1928;65196;65128;16314;65222;2398;62906;81;65460;65511;0;0
1475;1521885248;2137;65185;65118;16295;65216;2423;62930;78;65445;65524;0;0
1476;1521885248;2405;65188;65103;16311;65216;2423;62930;65;65440;65498;0;0
1477;1521885248;3152;65193;65111;16280;65216;2423;62930;65;65450;65513;0;0
1478;1521885248;2353;65186;65111;16298;65212;2416;62922;76;65429;15;0;0
1479;1521885248;2004;65170;65130;16294;65212;2416;62922;77;65451;65521;0;0
1480;1521885248;2072;65170;65116;16290;65195;2422;62922;50;65457;65516;0;0
1481;1521885248;1889;65192;65130;16303;65195;2422;62922;53;65475;65500;0;0
1482;1521885248;2113;65183;65123;16302;65195;2422;62953;74;65424;65507;0;0
1483;1521885248;2455;65200;65123;16311;65226;2396;62953;86;65449;65525;0;0
1484;1521885248;2977;65185;65137;16318;65226;2396;62953;70;65427;65530;0;0
1485;1521885248;2380;65193;65112;16298;65240;2376;62962;69;65442;65533;0;0
1486;1521885248;2003;65193;65110;16300;65240;2376;62962;53;65436;65511;0;0
1487;1521885248;2103;65173;65114;16308;65230;2389;62925;91;65446;65497;0;0
1488;1521885248;1905;65161;65114;16306;65230;2389;62925;70;65411;65492;0;0
1489;1521885248;2656;65203;65124;16307;65230;2389;62934;69;65457;65510;0;0
1490;1521885248;3026;65169;65136;16333;65217;2409;62934;77;65455;65506;0;0
1491;1521885248;2242;65171;65118;16297;65217;2409;62934;91;65446;65490;0;0
1492;1521885248;2125;65195;65109;16312;65214;2409;62884;89;65452;65500;0;0
1493;1521885248;1910;65180;65121;16331;65214;2409;62884;102;65466;65502;0;0
1494;1521885248;2108;65183;65123;16328;65230;2417;62913;77;65440;65504;0;0
1495;1521885248;1849;65176;65109;16279;65230;2417;62913;120;65455;65510;0;0
1496;1521885248;2489;65193;65096;16297;65230;2417;62913;81;65448;65508;0;0
1497;1521885248;3035;65199;65114;16295;65227;2425;62897;72;65423;65502;0;0
1498;1521885248;2245;65202;65142;16300;65227;2425;62897;88;65453;65519;0;0
1499;1521885248;2169;65175;65137;16309;65218;2406;62920;74;65432;65511;0;0
1500;1521885248;1877;65170;65121;16301;65218;2406;62920;81;65435;65486;0;0
1501;1521885248;2159;65183;65118;16293;65218;2406;62920;66;65438;65496;0;0
1502;1521885248;2027;65188;65133;16293;65214;2415;62928;82;65483;65515;0;0
1503;1521885248;2485;65195;65114;16270;65214;2415;62928;77;65446;65477;0;0
1504;1521885248;3060;65187;65118;16295;65197;2406;62930;75;65444;65523;0;0
1505;1521885248;2192;65203;65099;16295;65197;2406;62930;72;65450;65510;0;0
1506;1521885248;2167;65197;65117;16292;65196;2417;62954;81;65421;65479;0;0
1507;1521885248;1862;65207;65109;16309;65196;2417;62954;85;65442;65505;0;0
1508;1521885248;1949;65197;65114;16312;65196;2417;62954;66;65430;65483;0;0
1509;1521885248;2067;65204;65123;16306;65198;2401;62926;79;65440;65511;0;0
1510;1521885248;2481;65192;65107;16332;65198;2401;62926;96;65453;65491;0;0
1511;1521885248;3114;65179;65121;16310;65188;2404;62955;70;65448;65509;0;0
1512;1521885248;2201;65191;65113;16271;65188;2404;62955;63;65441;65508;0;0
1513;1521885248;2228;65202;65131;16315;65188;2404;62955;73;65432;65504;0;0
1514;1521885248;2074;65186;65119;16306;65185;2415;62938;83;65441;65499;0;0
1515;1521885248;1947;65207;65110;16280;65185;2415;62938;53;65462;65493;0;0
1516;1521885248;2631;65199;65105;16308;65212;2410;62896;63;65445;65507;0;0
1517;1521885248;2950;65166;65125;16319;65212;2410;62896;57;65434;65492;0;0
1518;1521885248;2404;65176;65109;16300;65224;2409;62928;75;65430;65510;0;0
1519;1521885248;1955;65179;65125;16324;65224;2409;62928;72;65447;65485;0;0
1520;1521885248;1970;65160;65118;16331;65224;2409;62928;87;65451;65510;0;0
1521;1521885248;2047;65186;65115;16292;65218;2401;62939;96;65423;65500;0;0
1522;1521885248;1927;65181;65116;16293;65218;2401;62939;82;65456;65501;0;0
1523;1521885248;2608;65190;65123;16286;65212;2415;62925;85;65425;65496;0;0
1524;1521885248;2924;65209;65136;16298;65212;2415;62925;77;65432;65486;0;0
1525;1521885248;2427;65185;65119;16318;65212;2403;62914;82;65433;65504;0;0
1526;1521885248;2090;65177;65099;16317;65223;2403;62914;75;65443;65482;0;0
1527;1521885248;1974;65211;65115;16310;65223;2403;62914;54;65443;65512;0;0
1528;1521885248;2046;65212;65128;16325;65205;2383;62946;83;65439;65514;0;0
1529;1521885248;1921;65201;65119;16335;65205;2383;62946;47;65428;65504;0;0
1530;1521885248;2594;65197;65125;16365;65210;2403;62899;92;65446;65488;0;0
1531;1521885248;2889;65187;65130;16352;65210;2403;62899;70;65411;65499;0;0
1532;1521885248;2247;65192;65121;16320;65210;2403;62899;98;65450;65522;0;0
1533;1521885248;2114;65193;65121;16316;65203;2437;62904;63;65458;65497;0;0
1534;1521885248;1932;65187;65131;16310;65203;2437;62904;57;65448;65518;0;0
1535;1521885248;2090;65203;65123;16289;65201;2442;62923;71;65439;65484;0;0
1536;1521885248;1888;65197;65123;16304;65201;2442;62923;67;65447;65491;0;0
1537;1521885248;2685;65180;65117;16304;65210;2394;62911;93;65463;65490;0;0
1538;1521885248;2895;65177;65115;16266;65210;2394;62911;65;65458;65481;0;0
1539;1521885248;2246;65210;65120;16292;65210;2394;62911;89;65469;65504;0;0
1540;1521885248;2143;65176;65105;16298;65217;2424;62917;81;65434;65530;0;0
1541;1521885248;1949;65180;65112;16255;65217;2424;62917;83;65444;65506;0;0
1542;1521885248;2118;65204;65130;16289;65208;2416;62939;81;65440;65488;0;0
1543;1521885248;2467;65204;65114;16307;65208;2416;62939;61;65440;65495;0;0
1544;1521885248;3208;65208;65123;16306;65208;2416;62939;87;65445;65501;0;0
1545;1521885248;2343;65204;65124;16324;65211;2412;62904;92;65440;65497;0;0
1546;1521885248;2013;65189;65121;16296;65211;2412;62904;75;65475;65495;0;0
1547;1521885248;2100;65196;65130;16297;65228;2434;62888;112;65446;65533;0;0
1548;1521885248;1891;65207;65122;16311;65228;2434;62888;83;65437;65499;0;0
1549;1521885248;2158;65206;65121;16324;65228;2434;62888;54;65458;65499;0;0
1550;1521885248;2446;65188;65133;16342;65210;2411;62904;71;65446;65501;0;0
1551;1521885248;3013;65190;65122;16304;65210;2411;62904;112;65430;65498;0;0
1552;1521885248;2359;65183;65124;16287;65224;2441;62919;63;65449;65500;0;0
1553;1521885248;2020;65183;65122;16309;65224;2441;62919;82;65462;65483;0;0
1554;1521885248;2087;65174;65135;16317;65253;2430;62912;87;65436;65496;0;0
1555;1521885248;1937;65156;65136;16295;65253;2430;62912;90;65451;65510;0;0
1556;1521885248;1991;65205;65101;16325;65253;2430;62912;89;65450;65512;0;0
1557;1521885248;2633;65225;65042;16292;65235;2372;62884;47;65442;65511;0;0
1558;1521885248;2934;65247;65028;16232;65235;2372;62884;58;65447;65487;0;0
1559;1521885248;2366;65228;65075;16388;65204;2390;62927;76;65439;65512;0;0
1560;1521885248;1968;65193;65129;16386;65204;2390;62927;76;65475;65509;0;0
1561;1521885248;2154;65153;65176;16211;65204;2405;62918;88;65486;65491;0;0
1562;1521885248;2018;65179;65144;16202;65211;2405;62918;65;65427;65518;0;0
1563;1521885248;1922;65169;65091;16357;65211;2405;62918;76;65422;65530;0;0
1564;1521885248;2639;65168;65183;16203;65222;2403;62912;58;65448;65496;0;0
1565;1521885248;3000;65203;65241;16297;65222;2403;62912;99;65475;65509;0;0
1566;1521885248;2334;65195;65161;16331;65234;2420;62899;73;65416;65505;0;0
1567;1521885248;1944;65243;65116;16155;65234;2420;62899;77;65473;65515;0;0
1568;1521885248;1934;65236;65153;16325;65234;2420;62899;75;65418;65508;0;0
1569;1521885248;2035;65146;65138;16423;65215;2402;62894;102;65406;65478;0;0
1570;1521885248;2455;65210;65057;16298;65215;2402;62894;60;65473;65488;0;0
1571;1521885248;3133;65252;65058;16185;65243;2405;62912;62;65445;65512;0;0
1572;1521885248;2190;65215;65100;16325;65243;2405;62912;93;65406;65497;0;0
1573;1521885248;2123;65167;65167;16408;65246;2413;62913;63;65451;65519;0;0
1574;1521885248;1882;65166;65116;16292;65246;2413;62913;33;65467;65487;0;0
1575;1521885248;1940;65171;65027;16312;65246;2413;62913;38;65421;65509;0;0
1576;1521885248;2034;65216;65042;16269;65238;2429;62890;93;65473;65531;0;0
1577;1521885248;2458;65220;65099;16390;65238;2429;62890;105;65435;65513;0;0
1578;1521885248;3091;65163;65194;16375;65238;2424;62910;62;65447;65512;0;0
1579;1521885248;2178;65160;65144;16267;65238;2424;62910;77;65459;65511;0;0
1580;1521885248;2225;65240;65103;16175;65238;2424;62910;50;65465;65483;0;0
1581;1521885248;2027;65233;65122;16324;65238;2390;62916;100;65419;65506;0;0
1582;1521885248;1927;65185;65184;16390;65238;2390;62916;70;65431;65493;0;0
1583;1521885248;2034;65160;65216;16289;65253;2406;62904;81;65462;65505;0;0
1584;1521885248;2392;65200;65099;16100;65253;2406;62904;73;65449;65474;0;0
1585;1521885248;3109;65252;65066;16225;65230;2416;62909;67;65418;65496;0;0
1586;1521885248;2109;65170;65093;16427;65230;2416;62909;84;65413;65528;0;0
1587;1521885248;2039;65130;65158;16378;65230;2416;62909;68;65458;65497;0;0
1588;1521885248;2090;65151;65121;16317;65235;2415;62883;98;65470;65495;0;0
1589;1521885248;1949;65217;65075;16177;65235;2415;62883;74;65461;65501;0;0
1590;1521885248;2650;65242;65090;16319;65228;2403;62896;71;65420;65517;0;0
1591;1521885248;2884;65163;65149;16545;65228;2403;62896;65;65415;65498;0;0
1592;1521885248;2454;65124;65146;16397;65228;2403;62896;103;65454;65510;0;0
1593;1521885248;2317;65413;64827;14755;65239;2406;62895;81;65463;65499;0;0
1594;1521885248;2113;65298;65125;17495;65239;2406;62895;392;65455;45;0;0
1595;1521885248;1882;64973;65019;18899;65217;2418;62838;177;65249;65465;0;0
1596;1521885248;1796;64713;65002;15756;65217;2418;62838;20;65518;65479;0;0
1597;1521885249;2897;65251;65156;13624;65209;2400;62845;65534;142;65519;0;0
1598;1521885249;2987;65332;65080;15316;65209;2400;62845;119;65193;65525;0;0
1599;1521885249;2112;64880;65205;17652;65209;2400;62845;36;65068;65499;0;0
1600;1521885249;2150;64660;65211;16257;65221;2409;62890;30;162;65508;0;0
1601;1521885249;1990;65223;65259;15189;65221;2409;62890;39;136;65509;0;0
1602;1521885249;2067;65170;65123;15347;65211;2418;62907;109;65260;65500;0;0
1603;1521885249;1903;64954;65129;16076;65211;2418;62907;118;65251;65492;0;0
1604;1521885249;2643;65381;65093;17239;65211;2390;62883;61;7;65520;0;0
1605;1521885249;2910;65250;65155;16382;65201;2390;62883;16;65456;65511;0;0
1606;1521885249;2243;65268;65131;15746;65201;2390;62883;55;65471;65484;0;0
1607;1521885249;2178;65274;65058;15889;65195;2383;62907;98;65501;65487;0;0
1608;1521885249;1968;65376;65162;16617;65195;2383;62907;74;65375;65513;0;0
1609;1521885249;2046;65102;65272;16717;65202;2432;62849;50;65399;65500;0;0
1610;1521885249;1869;65156;65135;16160;65202;2432;62849;72;65509;65474;0;0
1611;1521885249;2651;65257;65077;15726;65202;2394;62863;124;65512;65499;0;0
1612;1521885249;2875;65287;65079;16638;65233;2394;62863;111;65345;65509;0;0
