 counter ; timestamp ; amplitude ; accx ; accy ; accz ; magx ; magy ; magz ; gyrx ; gyry ; gyrz ; temp ; act state
1;1521879514;3622;65298;65185;16232;65244;2744;62791;95;65431;65505;0;0
2;1521879514;1864;65296;65106;16083;65236;2755;62765;66;65460;65516;0;0
3;1521879514;2197;65274;65164;16485;65232;2751;62805;84;65427;65534;0;0
4;1521879517;1827;65292;65096;16260;65228;2750;62797;73;65432;65512;0;0
5;1521879517;2224;65289;65140;16298;65225;2739;62803;77;65429;65516;0;0
6;1521879517;2063;65308;65159;16364;65202;2741;62779;60;65440;65485;0;0
7;1521879517;1901;65300;65108;16236;65215;2781;62771;77;65416;65511;0;0
8;1521879517;2161;65321;65124;16364;65199;2749;62748;73;65424;65494;0;0
9;1521879517;1913;65292;65118;16287;65214;2719;62722;87;65452;65494;0;0
10;1521879517;2103;65294;65135;16309;65204;2757;62780;71;65428;65514;0;0
11;1521879517;1860;65285;65138;16342;65173;2745;62770;60;65442;65517;0;0
12;1521879517;2140;65306;65126;16251;65210;2756;62779;65;65424;65511;0;0
13;1521879517;1866;65292;65145;16345;65189;2733;62793;61;65428;65502;0;0
14;1521879518;2040;65034;65137;16356;65227;2705;62837;84;65438;65521;0;0
15;1521879518;1865;65300;65133;16316;65235;2752;62786;64;65411;65526;0;0
16;1521879518;2151;65278;65116;16295;65240;2719;62759;67;65427;65506;0;0
17;1521879518;1829;65300;65127;16331;65231;2726;62823;54;65427;65525;0;0
18;1521879518;2122;65291;65128;16282;65217;2742;62797;63;65469;4;0;0
19;1521879518;1813;65281;65128;16294;65228;2740;62782;84;65419;65508;0;0
20;1521879518;1905;65269;65128;16309;65197;2776;62807;69;65431;65513;0;0
21;1521879518;2061;65302;65115;16298;65215;2754;62783;78;65454;65514;0;0
22;1521879518;1922;65302;65106;16304;65232;2753;62801;71;65437;65527;0;0
23;1521879518;2037;65284;65112;16295;65200;2757;62832;88;65455;65522;0;0
24;1521879519;1913;65285;65134;16308;65245;2757;62796;55;65406;65508;0;0
25;1521879519;2054;65276;65124;16327;65246;2760;62803;107;65428;65519;0;0
26;1521879519;1857;65304;65136;16289;65225;2767;62779;73;65455;65515;0;0
27;1521879519;2204;65271;65121;16306;65200;2717;62781;68;65445;65503;0;0
28;1521879519;1841;65301;65131;16245;65222;2760;62758;69;65452;65502;0;0
29;1521879519;2271;65282;65141;16342;65214;2741;62797;68;65454;65494;0;0
30;1521879519;1827;65301;65125;16287;65174;2754;62774;103;65426;65524;0;0
31;1521879519;1950;65293;65121;16299;65249;2773;62759;91;65446;3;0;0
32;1521879519;2063;65281;65139;16320;65244;2768;62786;87;65439;65517;0;0
33;1521879520;1908;65309;65112;16259;65223;2734;62816;93;65443;65522;0;0
34;1521879520;2129;65269;65132;16293;65248;2734;62786;68;65434;65534;0;0
35;1521879520;1866;65287;65122;16289;65216;2760;62794;68;65435;65527;0;0
36;1521879520;2117;65276;65139;16296;65225;2749;62807;66;65431;65523;0;0
37;1521879520;1784;65319;65130;16297;65259;2732;62789;86;65450;65534;0;0
38;1521879520;2255;65293;65127;16327;65240;2759;62769;77;65467;65496;0;0
39;1521879520;1779;65300;65125;16283;65219;2775;62811;51;65451;65521;0;0
40;1521879520;1948;65310;65115;16280;65203;2729;62773;46;65441;65496;0;0
41;1521879520;2090;65281;65127;16308;65197;2714;62780;64;65440;65514;0;0
42;1521879520;1835;65317;65131;16283;65231;2717;62793;65;65437;65506;0;0
43;1521879521;2154;65273;65126;16305;65192;2735;62824;66;65432;65529;0;0
44;1521879521;1841;65292;65136;16300;65258;2756;62812;93;65456;65530;0;0
45;1521879521;2166;65280;65141;16331;65232;2760;62755;55;65413;65504;0;0
46;1521879521;1868;65282;65126;16323;65210;2738;62750;70;65421;65512;0;0
47;1521879521;2144;65312;65137;16295;65213;2715;62782;64;65432;65505;0;0
48;1521879521;1802;65274;65122;16286;65229;2701;62781;78;65453;65476;0;0
49;1521879521;2306;65321;65204;18750;65228;2748;62781;288;65244;16;0;0
50;1521879521;2039;65201;65001;16392;65226;2781;62762;25;65418;65505;0;0
51;1521879521;1899;65281;65050;16435;65221;2751;62822;94;65420;65512;0;0
52;1521879522;2081;65315;65114;16290;65207;2756;62795;59;65453;65513;0;0
53;1521879522;1900;65243;65141;16361;65221;2788;62797;46;65396;65524;0;0
54;1521879522;2040;65258;65141;16306;65226;2761;62766;75;65403;65520;0;0
55;1521879522;1864;65305;65102;16219;65250;2752;62803;84;65456;65504;0;0
56;1521879522;2137;65270;65162;16367;65229;2762;62821;69;65427;65508;0;0
57;1521879522;1883;65281;65141;16326;65239;2792;62794;86;65456;65483;0;0
58;1521879522;2236;65280;65112;16255;65231;2753;62775;50;65424;5;0;0
59;1521879522;1784;65309;65129;16297;65226;2747;62849;54;65426;65491;0;0
60;1521879522;1924;65306;65130;16296;65222;2739;62807;68;65416;65485;0;0
61;1521879522;2087;65292;65121;16323;65207;2744;62798;66;65433;65522;0;0
62;1521879523;1980;65298;65128;16325;65213;2759;62805;66;65432;65534;0;0
63;1521879523;2066;65307;65121;16286;65256;2774;62804;94;65424;65502;0;0
64;1521879523;1906;65294;65128;16326;65239;2772;62805;91;65429;65513;0;0
65;1521879523;2115;65282;65147;16275;65264;2740;62785;88;65424;65507;0;0
66;1521879523;1767;65300;65149;16301;65245;2762;62779;65;65431;65499;0;0
67;1521879523;2229;65265;65117;16304;65226;2723;62844;72;65445;65495;0;0
68;1521879523;1742;65297;65123;16295;65231;2723;62820;45;65445;65503;0;0
69;1521879523;2221;65273;65122;16312;65204;2733;62825;61;65445;65468;0;0
70;1521879523;1999;65295;65126;16285;65222;2718;62773;77;65411;65509;0;0
71;1521879523;1850;65322;65120;16292;65267;2752;62800;68;65434;65503;0;0
72;1521879524;2091;65284;65123;16320;65188;2777;62809;64;65443;65494;0;0
73;1521879524;1838;65296;65129;16300;65220;2739;62820;82;65442;65514;0;0
74;1521879524;2158;65303;65124;16278;65212;2745;62806;97;65429;65508;0;0
75;1521879524;1840;65279;65133;16326;65218;2753;62781;40;65419;65504;0;0
76;1521879524;2164;65313;65150;16125;65236;2736;62757;65;65441;65520;0;0
77;1521879524;1838;65309;65112;16348;65229;2736;62770;49;65436;65498;0;0
78;1521879524;2140;65316;65072;16694;65199;2754;62759;109;65453;65502;0;0
79;1521879524;1787;65289;65116;16319;65205;2786;62772;98;65436;65477;0;0
80;1521879524;1927;65268;65150;16389;65236;2753;62774;61;65447;65526;0;0
81;1521879525;2099;65277;65138;16307;65220;2756;62841;103;65432;65508;0;0
82;1521879525;1911;65308;65099;16258;65221;2738;62777;64;65449;65505;0;0
83;1521879525;2087;65415;65085;16228;65217;2760;62809;60;65429;65480;0;0
84;1521879525;1879;65266;65164;16292;65195;2776;62821;67;65412;65490;0;0
85;1521879525;2135;65346;65186;16238;65220;2734;62823;66;65443;65512;0;0
86;1521879525;1845;65245;65118;16389;65188;2758;62770;80;65428;65526;0;0
87;1521879525;2208;65330;65088;16377;65206;2740;62474;48;65431;65506;0;0
88;1521879525;1789;65301;65112;16230;65236;2768;62803;80;65437;65514;0;0
89;1521879525;1920;65303;65148;16344;65248;2740;62785;84;65439;65501;0;0
90;1521879525;1975;65288;65120;16294;65213;2731;62765;73;65442;65499;0;0
91;1521879526;1948;65317;65133;16292;65227;2732;62760;76;65452;65510;0;0
92;1521879526;2059;65310;65124;16287;65218;2748;62798;90;65419;65519;0;0
93;1521879526;1852;65016;65285;16848;65205;2737;62736;67;65507;65506;0;0
94;1521879526;2143;65315;65145;16044;65172;2750;62743;58;65454;65517;0;0
95;1521879526;1784;65238;65132;16200;65204;2743;62772;90;65454;65502;0;0
96;1521879526;2204;65210;65342;16472;65189;2769;62815;116;65500;65503;0;0
97;1521879526;1724;65436;65138;16609;65226;2740;62756;96;65420;65497;0;0
98;1521879526;2263;65204;65077;16236;65206;2740;62743;82;65421;65501;0;0
99;1521879526;2033;65428;65093;16148;65197;2730;62765;79;65449;65509;0;0
100;1521879527;1891;65215;65090;16299;65178;2749;62805;91;65437;65501;0;0
101;1521879527;2147;65402;65041;16356;65168;2721;62762;43;65422;65468;0;0
102;1521879527;1793;65236;65121;16217;65206;2736;62794;75;65410;65499;0;0
103;1521879527;2160;65344;65117;16430;65206;2744;62752;74;65427;65519;0;0
104;1521879527;1874;65365;65066;16142;65230;2756;62815;44;65442;65517;0;0
105;1521879527;2193;65252;65029;16359;65202;2730;62770;78;65468;65513;0;0
106;1521879527;1854;65341;65065;16057;65181;2743;62788;93;65438;65510;0;0
107;1521879527;2197;65314;64992;16159;65218;2738;62783;71;65444;65511;0;0
108;1521879527;2064;65322;65154;16263;65203;2736;62774;62;65434;65483;0;0
109;1521879527;1922;65237;65182;16244;65201;2730;62746;95;65421;65511;0;0
110;1521879528;2197;65315;65130;16248;65191;2737;62731;91;65413;65509;0;0
111;1521879528;1867;65300;65126;16425;65249;2730;62761;77;65449;65517;0;0
112;1521879528;2129;65261;65095;16189;65194;2699;62763;69;65439;65514;0;0
113;1521879528;1855;65339;65147;16268;65235;2735;62811;89;65427;65523;0;0
114;1521879528;2242;65257;65155;16369;65237;2712;62752;71;65447;65514;0;0
115;1521879528;1860;65323;65122;16275;65223;2739;62783;91;65426;65519;0;0
116;1521879528;2234;65263;65129;16335;65204;2741;62762;72;65434;65490;0;0
117;1521879528;2057;65326;65121;16297;65225;2720;62742;99;65438;65494;0;0
118;1521879528;1929;65275;65114;16267;65216;2714;62753;72;65417;65507;0;0
119;1521879528;1992;65298;65148;16356;65245;2737;62785;74;65444;65502;0;0
120;1521879529;1889;65261;65129;16253;65213;2729;62766;82;65432;65487;0;0
121;1521879529;2046;65282;65129;16310;65226;2732;62752;108;65465;65510;0;0
122;1521879529;1875;65280;65132;16342;65236;2699;62793;80;65441;65522;0;0
123;1521879529;2147;65290;65132;16293;65195;2737;62752;62;65435;65480;0;0
124;1521879529;1786;65307;65130;16333;65222;2772;62779;97;65439;0;0;0
125;1521879529;2185;65276;65105;16329;65221;2747;62751;65;65450;65491;0;0
126;1521879529;1787;65318;65095;16295;65244;2743;62777;58;65429;65509;0;0
127;1521879529;1964;65274;65118;16343;65194;2710;62752;85;65446;65504;0;0
128;1521879529;2075;65307;65122;16276;65195;2780;62759;111;65450;65514;0;0
129;1521879530;1836;65268;65121;16327;65207;2728;62747;60;65415;65525;0;0
130;1521879530;2086;65317;65127;16282;65209;2728;62763;72;65441;65523;0;0
131;1521879530;1946;65264;65120;16288;65194;2706;62734;64;65425;65493;0;0
132;1521879530;2127;65285;65140;16323;65194;2728;62815;71;65452;65524;0;0
133;1521879530;1859;65310;65153;16292;65199;2745;62807;55;65474;65508;0;0
134;1521879530;2144;65278;65138;16346;65199;2730;62756;65;65441;65506;0;0
135;1521879530;1799;65306;65129;16296;65180;2767;62771;98;65409;65485;0;0
136;1521879530;1983;65384;64474;15181;65215;2750;62741;60;65359;65491;0;0
137;1521879530;2056;65246;65008;16731;65220;2710;62787;138;65461;65498;0;0
138;1521879530;1875;65282;65114;16159;65196;2687;62814;53;65424;65524;0;0
139;1521879531;2093;65225;65355;16742;65211;2758;62787;82;65450;65520;0;0
140;1521879531;1900;65327;65071;16040;65202;2716;62763;99;65452;65516;0;0
141;1521879531;2099;65294;65164;16408;65227;2752;62788;95;65452;65491;0;0
142;1521879531;1847;65267;65075;16305;65214;2742;62808;75;65427;65480;0;0
143;1521879531;2125;65292;65113;16269;65203;2735;62733;83;65431;65479;0;0
144;1521879531;1815;65239;65158;16327;65202;2732;62747;101;65436;65525;0;0
145;1521879531;2159;65316;65129;16241;65217;2734;62755;77;65434;65494;0;0
146;1521879531;1781;65233;65124;16295;65222;2772;62783;68;65445;65505;0;0
147;1521879531;1943;65335;65114;16292;65211;2722;62771;55;65451;65501;0;0
148;1521879532;2033;65256;65111;16345;65197;2735;62766;53;65467;65525;0;0
149;1521879532;1912;65291;65091;16319;65203;2715;62798;48;65427;65521;0;0
150;1521879532;2053;65303;65130;16295;65219;2736;62770;64;65433;65522;0;0
151;1521879532;1864;65274;65133;16293;65199;2728;62720;82;65429;65521;0;0
152;1521879532;2140;65312;65155;16259;65179;2734;62751;42;65444;65501;0;0
153;1521879532;1829;65272;65138;16341;65234;2734;62770;65;65458;65515;0;0
154;1521879532;2236;65315;65115;16322;65198;2710;62746;95;65455;65496;0;0
155;1521879532;1662;65286;65104;16280;65195;2747;62795;78;65436;65510;0;0
156;1521879532;1940;65302;65139;16343;65197;2729;62735;76;65417;65515;0;0
157;1521879532;2040;65278;65127;16296;65207;2710;62759;59;65449;65489;0;0
158;1521879533;1927;65308;65115;16331;65220;2757;62828;99;65441;65496;0;0
159;1521879533;2074;65295;65109;16325;65227;2753;62766;65;65423;65503;0;0
160;1521879533;1843;65279;65106;16357;65194;2755;62767;71;65441;65478;0;0
161;1521879533;2140;65321;65121;16300;65208;2779;62752;82;65420;65507;0;0
162;1521879533;1821;65287;65140;16326;65226;2762;62753;106;65450;65499;0;0
163;1521879533;2246;65308;65124;16299;65180;2742;62766;62;65466;65506;0;0
164;1521879533;1804;65290;65116;16271;65236;2786;62759;89;65425;65521;0;0
165;1521879533;2188;65266;65127;16300;65215;2724;62791;103;65432;65509;0;0
166;1521879533;2033;65318;65110;16292;65248;2750;62797;84;65437;65510;0;0
167;1521879533;1860;65290;65137;16324;65228;2751;62773;79;65454;65519;0;0
168;1521879534;2146;65295;65128;16289;65213;2721;62789;63;65432;65490;0;0
169;1521879534;1848;65296;65136;16273;65210;2693;62772;74;65416;65512;0;0
170;1521879534;2152;65288;65124;16339;65203;2749;62788;63;65425;65507;0;0
171;1521879534;1793;65299;65108;16308;65204;2768;62740;73;65450;65519;0;0
172;1521879534;2099;65269;65122;16328;65226;2698;62774;87;65460;65498;0;0
173;1521879534;1820;65317;65120;16351;65214;2743;62801;91;65438;65512;0;0
174;1521879534;2031;65253;65108;16248;65201;2749;62792;77;65432;65510;0;0
175;1521879534;2031;65313;65123;16304;65234;2748;62813;74;65421;65504;0;0
176;1521879534;1898;65302;65115;16293;65213;2731;62819;81;65430;65499;0;0
177;1521879535;2018;65278;65145;16287;65209;2724;62783;70;65427;65496;0;0
178;1521879535;1886;65299;65151;16308;65223;2730;62812;65;65454;65509;0;0
179;1521879535;2002;65272;65116;16245;65223;2721;62823;58;65430;65500;0;0
180;1521879535;1854;65307;65108;16356;65224;2711;62830;94;65452;65512;0;0
181;1521879535;2151;65297;65125;16298;65221;2722;62809;106;65436;65495;0;0
182;1521879535;1730;65266;65151;16239;65227;2700;62808;88;65422;65504;0;0
183;1521879535;2112;65304;65126;16329;65239;2716;62816;58;65429;65501;0;0
184;1521879535;2055;65293;65130;16331;65226;2769;62798;75;65459;65496;0;0
185;1521879535;1941;65286;65091;16313;65225;2750;62746;89;65411;65510;0;0
186;1521879535;2081;65320;65135;16293;65253;2734;62776;61;65428;65512;0;0
187;1521879536;1833;65258;65133;16302;65219;2725;62793;90;65430;65510;0;0
188;1521879536;2070;65337;65140;16262;65223;2738;62786;64;65450;65516;0;0
189;1521879536;1895;65259;65131;16295;65241;2722;62775;84;65459;65507;0;0
190;1521879536;2173;65317;65105;16358;65220;2709;62761;80;65449;65502;0;0
191;1521879536;1782;65289;65108;16292;65220;2735;62774;102;65449;65529;0;0
192;1521879536;1939;65288;65135;16287;65237;2713;62792;66;65440;65484;0;0
193;1521879536;1674;65291;65113;16319;65231;2727;62778;80;65441;65521;0;0
194;1521879536;1957;65274;65118;16291;65194;2743;62809;75;65469;65484;0;0
195;1521879536;2075;65293;65123;16296;65242;2735;62771;75;65423;65511;0;0
196;1521879537;1843;65274;65119;16331;65230;2746;62784;60;65438;65514;0;0
197;1521879537;2100;65303;65124;16299;65206;2784;62748;62;65436;65502;0;0
198;1521879537;1812;65308;65125;16300;65238;2697;62760;51;65442;65469;0;0
199;1521879537;2188;65270;65121;16291;65205;2753;62761;63;65431;65506;0;0
200;1521879537;1835;65325;65117;16340;65205;2757;62744;90;65453;65503;0;0
201;1521879537;2121;65268;65117;16331;65200;2759;62727;91;65450;65511;0;0
202;1521879537;1790;65315;65110;16295;65241;2705;62765;71;65406;65498;0;0
203;1521879537;1890;65291;65130;16300;65221;2744;62773;72;65442;65504;0;0
204;1521879537;2095;65300;65127;16360;65232;2775;62742;60;65445;65528;0;0
205;1521879537;1899;65286;65134;16287;65249;2705;62776;69;65446;65487;0;0
206;1521879538;2079;65279;65131;16311;65222;2721;62765;80;65418;65500;0;0
207;1521879538;1886;65310;65106;16315;65233;2738;62759;70;65467;65501;0;0
208;1521879538;1713;65282;65100;16298;65192;2755;62768;48;65435;65491;0;0
209;1521879538;1829;65308;65126;16365;65194;2748;62778;94;65438;65506;0;0
210;1521879538;2197;65278;65119;16305;65193;2742;62751;61;65427;65517;0;0
211;1521879538;1661;65303;65099;16269;65211;2792;62736;68;65437;65514;0;0
212;1521879538;1987;65291;65134;16298;65204;2725;62768;68;65451;65503;0;0
213;1521879538;2089;65287;65110;16297;65205;2703;62778;90;65404;65502;0;0
214;1521879538;1943;65325;65113;16322;65211;2700;62790;83;65461;65522;0;0
215;1521879538;2075;65275;65112;16312;65180;2760;62742;56;65459;65501;0;0
216;1521879539;1841;65306;65125;16303;65187;2752;62727;74;65426;65518;0;0
217;1521879539;2129;65297;65123;16299;65213;2752;62746;89;65445;65513;0;0
218;1521879539;1891;65301;65124;16335;65195;2749;62750;95;65443;65496;0;0
219;1521879539;2235;65286;65119;16318;65201;2759;62727;68;65453;65523;0;0
220;1521879539;1816;65295;65124;16300;65228;2748;62751;71;65432;65525;0;0
221;1521879539;2211;65284;65127;16301;65237;2727;62744;59;65451;65508;0;0
222;1521879539;2000;65282;65122;16271;65248;2743;62745;76;65420;65514;0;0
223;1521879539;1979;65298;65123;16339;65231;2750;62735;85;65434;65497;0;0
224;1521879539;2112;65298;65135;16306;65235;2736;62756;91;65438;65494;0;0
225;1521879540;1873;65290;65100;16287;65233;2718;62773;70;65438;65498;0;0
226;1521879540;2084;65277;65130;16322;65224;2753;62781;94;65429;65503;0;0
227;1521879540;1842;65285;65118;16304;65217;2740;62753;69;65448;65488;0;0
228;1521879540;2205;65333;65138;16296;65220;2750;62752;51;65447;65501;0;0
229;1521879540;1816;65287;65125;16303;65216;2738;62780;56;65422;65509;0;0
230;1521879540;2186;65281;65137;16285;65221;2715;62759;78;65445;65520;0;0
231;1521879540;2038;65290;65128;16280;65253;2740;62788;90;65427;65507;0;0
232;1521879540;1855;65281;65125;16316;65221;2751;62762;81;65441;65526;0;0
233;1521879540;2115;65295;65127;16298;65220;2742;62734;99;65449;65507;0;0
234;1521879540;1899;65306;65131;16312;65240;2744;62795;59;65441;65497;0;0
235;1521879541;2030;65289;65108;16329;65245;2700;62743;65;65430;65506;0;0
236;1521879541;1858;65284;65121;16326;65236;2734;62792;47;65439;65504;0;0
237;1521879541;2174;65314;65130;16293;65251;2736;62824;112;65436;65522;0;0
238;1521879541;1856;65292;65103;16306;65256;2752;62749;62;65443;65511;0;0
239;1521879541;2239;65309;65115;16261;65283;2717;62762;83;65460;65491;0;0
240;1521879541;1711;65277;65134;16329;65264;2747;62730;83;65454;65523;0;0
241;1521879541;1933;65293;65124;16280;65265;2710;62799;85;65454;65522;0;0
242;1521879541;2099;65297;65133;16292;65249;2741;62774;81;65456;65510;0;0
243;1521879541;1946;65292;65142;16325;65253;2724;62744;67;65444;65513;0;0
244;1521879542;2066;65291;65120;16285;65256;2772;62778;75;65446;65512;0;0
245;1521879542;1775;65318;65108;16301;65266;2721;62745;87;65419;9;0;0
246;1521879542;2159;65310;65135;16295;65244;2730;62761;89;65447;65503;0;0
247;1521879542;1885;65300;65125;16302;65239;2747;62783;87;65448;65524;0;0
248;1521879542;2188;65290;65108;16279;65210;2757;62829;42;65412;65496;0;0
249;1521879542;1779;65270;65122;16303;65292;2749;62784;84;65441;65515;0;0
250;1521879542;1917;65298;65154;16310;65249;2699;62792;70;65429;65514;0;0
251;1521879542;2022;65308;65127;16292;65240;2748;62780;76;65427;65516;0;0
252;1521879542;1962;65289;65101;16352;65253;2732;62776;80;65427;65524;0;0
253;1521879542;2121;65304;65117;16325;65207;2738;62758;69;65444;65501;0;0
254;1521879543;1887;65297;65122;16315;65233;2727;62783;57;65427;65497;0;0
255;1521879543;2100;65283;65116;16309;65227;2781;62769;51;65450;65527;0;0
256;1521879543;1818;65303;65141;16303;65211;2765;62830;52;65442;65526;0;0
257;1521879543;2218;65287;65133;16346;65210;2750;62739;70;65469;65507;0;0
258;1521879543;1794;65311;65124;16306;65242;2758;62782;78;65462;2;0;0
259;1521879543;1929;65297;65119;16285;65242;2753;62759;84;65436;65518;0;0
260;1521879543;2064;65292;65133;16301;65210;2780;62773;79;65422;65504;0;0
261;1521879543;1951;65304;65121;16292;65225;2777;62757;73;65428;65501;0;0
262;1521879543;2127;65286;65106;16326;65241;2767;62768;68;65454;65514;0;0
263;1521879543;1890;65293;65124;16324;65261;2777;62789;62;65416;65529;0;0
264;1521879544;2076;65289;65123;16298;65224;2727;62814;81;65443;65522;0;0
265;1521879544;1819;65315;65118;16296;65259;2746;62785;81;65449;65505;0;0
266;1521879544;2183;65277;65111;16330;65239;2701;62823;105;65445;65498;0;0
267;1521879544;1800;65311;65123;16302;65246;2749;62783;63;65455;65519;0;0
268;1521879544;2217;65289;65122;16338;65257;2738;62767;96;65434;65515;0;0
269;1521879544;1742;65294;65125;16307;65221;2767;62788;73;65440;65469;0;0
270;1521879544;1908;65301;65123;16295;65222;2770;62793;73;65458;65502;0;0
271;1521879544;2091;65285;65117;16302;65256;2764;62784;74;65437;65501;0;0
272;1521879544;1933;65292;65113;16304;65246;2742;62748;87;65439;65517;0;0
273;1521879545;2128;65295;65111;16283;65247;2725;62791;64;65463;65528;0;0
274;1521879545;1759;65303;65126;16356;65216;2753;62771;72;65426;65494;0;0
275;1521879545;2138;65285;65127;16294;65247;2765;62801;97;65452;65528;0;0
276;1521879545;1874;65306;65128;16241;65251;2761;62747;90;65438;65506;0;0
277;1521879545;2259;65287;65126;16327;65249;2721;62762;102;65454;65488;0;0
278;1521879545;1901;65304;65106;16292;65263;2757;62781;80;65453;3;0;0
279;1521879545;1869;65322;65116;16313;65242;2785;62774;66;65460;0;0;0
280;1521879545;2050;65292;65115;16307;65239;2750;62735;68;65455;65530;0;0
281;1521879545;1919;65300;65108;16315;65274;2731;62749;59;65426;65527;0;0
282;1521879545;2104;65278;65125;16321;65252;2719;62771;86;65443;65506;0;0
283;1521879546;1856;65291;65129;16326;65231;2744;62760;101;65435;65494;0;0
284;1521879546;2107;65294;65126;16291;65249;2707;62742;95;65393;65503;0;0
285;1521879546;1788;65295;65127;16300;65283;2740;62763;103;65432;65511;0;0
286;1521879546;2256;65284;65126;16307;65282;2725;62749;66;65441;65517;0;0
287;1521879546;1950;65304;65140;16261;65228;2714;62735;80;65442;65529;0;0
288;1521879546;1926;65292;65100;16273;65232;2740;62776;64;65415;65490;0;0
289;1521879546;2067;65287;65112;16307;65231;2735;62746;50;65429;65503;0;0
290;1521879546;1882;65307;65135;16300;65244;2749;62760;74;65431;65513;0;0
291;1521879546;2127;65278;65119;16320;65252;2747;62732;85;65459;65530;0;0
292;1521879547;1882;65307;65110;16349;65242;2720;62716;78;65437;65497;0;0
293;1521879547;2100;65296;65105;16292;65229;2709;62749;82;65423;65496;0;0
294;1521879547;1817;65295;65131;16313;65258;2767;62789;63;65439;65496;0;0
295;1521879547;2215;65295;65137;16279;65240;2749;62764;69;65428;65510;0;0
296;1521879547;1832;65280;65131;16319;65234;2731;62804;78;65432;65500;0;0
297;1521879547;2102;65281;65125;16292;65252;2724;62793;85;65450;65513;0;0
298;1521879547;1985;65317;65113;16292;65240;2732;62772;78;65435;65499;0;0
299;1521879547;1884;65315;65112;16280;65269;2731;62779;76;65428;65503;0;0
300;1521879547;2101;65284;65154;16318;65266;2741;62784;98;65445;65514;0;0
301;1521879547;1897;65298;65114;16307;65240;2701;62729;50;65445;65490;0;0
302;1521879548;2085;65312;65111;16308;65217;2764;62743;89;65440;65531;0;0
303;1521879548;1781;65293;65126;16265;65248;2725;62771;68;65442;65496;0;0
304;1521879548;2135;65301;65142;16297;65250;2724;62761;93;65451;65504;0;0
305;1521879548;1850;65276;65116;16286;65244;2759;62755;43;65442;65502;0;0
306;1521879548;2161;65315;65131;16311;65269;2723;62768;81;65452;65493;0;0
307;1521879548;2076;65278;65127;16263;65287;2735;62740;88;65478;65523;0;0
308;1521879548;1851;65301;65127;16314;65233;2722;62765;84;65424;65527;0;0
309;1521879548;2035;65278;65143;16306;65248;2755;62753;74;65444;65514;0;0
310;1521879548;1940;65289;65133;16344;65272;2763;62818;76;65432;65510;0;0
311;1521879548;2124;65292;65106;16294;65237;2717;62791;98;65430;65495;0;0
312;1521879549;1841;65293;65125;16292;65218;2741;62768;52;65433;65530;0;0
313;1521879549;2158;65306;65132;16302;65276;2758;62812;82;65427;65514;0;0
314;1521879549;1723;65251;65124;16306;65266;2736;62768;72;65424;65518;0;0
315;1521879549;1964;65306;65128;16267;65282;2770;62745;88;65440;65513;0;0
316;1521879549;1777;65283;65139;16394;65263;2764;62782;89;65445;65499;0;0
317;1521879549;1888;65283;65133;16232;65214;2733;62767;87;65443;65515;0;0
318;1521879549;2040;65278;65140;16307;65264;2719;62765;74;65438;65524;0;0
319;1521879549;1854;65291;65132;16325;65227;2762;62776;91;65444;65511;0;0
320;1521879549;2153;65303;65133;16254;65243;2726;62757;100;65452;65506;0;0
321;1521879550;1858;65330;65108;16242;65213;2743;62812;82;65436;65509;0;0
322;1521879550;2054;65243;65126;16305;65222;2733;62781;88;65430;65514;0;0
323;1521879550;1837;65356;65123;16298;65213;2721;62769;73;65435;65502;0;0
324;1521879550;2226;65271;65108;16312;65209;2757;62779;75;65437;65517;0;0
325;1521879550;1788;65311;65115;16304;65220;2713;62764;56;65446;65469;0;0
326;1521879550;1951;65292;65118;16266;65214;2725;62760;83;65435;65506;0;0
327;1521879550;2002;65281;65138;16301;65252;2722;62765;72;65447;65504;0;0
328;1521879550;1898;65303;65111;16306;65239;2743;62747;96;65438;65493;0;0
329;1521879550;2107;65285;65115;16307;65270;2754;62747;70;65429;65495;0;0
330;1521879550;1898;65290;65129;16353;65254;2701;62771;82;65443;65498;0;0
331;1521879551;2121;65272;65125;16267;65264;2739;62789;50;65422;65494;0;0
332;1521879551;1772;65332;65130;16276;65256;2736;62774;72;65439;65503;0;0
333;1521879551;2184;65258;65129;16347;65279;2727;62763;85;65454;65501;0;0
334;1521879551;1807;65314;65122;16285;65272;2746;62703;68;65444;65527;0;0
335;1521879551;1938;65304;65131;16288;65269;2726;62772;93;65449;65508;0;0
336;1521879551;2041;65289;65118;16279;65238;2739;62743;67;65438;65513;0;0
337;1521879551;1888;65302;65100;16292;65239;2720;62771;95;65425;65480;0;0
338;1521879551;2041;65286;65145;16318;65262;2754;62767;82;65431;65498;0;0
339;1521879551;1916;65299;65118;16277;65239;2746;62759;108;65442;65501;0;0
340;1521879552;2148;65299;65127;16261;65237;2719;62755;73;65419;65517;0;0
341;1521879552;1837;65311;65136;16304;65251;2725;62738;84;65440;65280;0;0
342;1521879552;2185;65274;65124;16309;65248;2744;62734;88;65447;65504;0;0
343;1521879552;1821;65316;65129;16308;65262;2747;62772;55;65438;65523;0;0
344;1521879552;2282;65297;65120;16275;65256;2757;62772;92;65442;65506;0;0
345;1521879552;2054;65289;65125;16303;65265;2732;62749;79;65432;65488;0;0
346;1521879552;1916;65291;65124;16292;65249;2761;62764;58;65439;65497;0;0
347;1521879552;2091;65300;65121;16334;65236;2715;62766;55;65440;65501;0;0
348;1521879552;1856;65288;65124;16301;65249;2736;62734;72;65433;65500;0;0
349;1521879552;2193;65295;65134;16258;65278;2755;62771;84;65444;65489;0;0
350;1521879553;1882;65305;65129;16307;65242;2724;62761;73;65430;65494;0;0
351;1521879553;2101;65285;65119;16285;65229;2727;62812;82;65423;65488;0;0
352;1521879553;1789;65306;65132;16331;65231;2704;62820;39;65417;65523;0;0
353;1521879553;2241;65280;65119;16299;65217;2693;62752;81;65455;65514;0;0
354;1521879553;2054;65278;65114;16278;65228;2733;62791;55;65435;65512;0;0
355;1521879553;1927;65287;65148;16299;65253;2694;62778;102;65439;65497;0;0
356;1521879553;2040;65282;65103;16274;65255;2707;62784;85;65432;65497;0;0
357;1521879553;1878;65305;65120;16338;65235;2684;62821;68;65437;65498;0;0
358;1521879553;2117;65291;65114;16300;65232;2719;62780;64;65426;65500;0;0
359;1521879553;1884;65285;65120;16292;65214;2715;62750;92;65435;65491;0;0
360;1521879554;2160;65299;65130;16297;65250;2729;62793;72;65444;65487;0;0
361;1521879554;1730;65292;65122;16302;65240;2702;62780;88;65414;65503;0;0
362;1521879554;2238;65296;65119;16301;65261;2701;62802;83;65424;65503;0;0
363;1521879554;1828;65293;65115;16326;65262;2735;62788;75;65447;65502;0;0
364;1521879554;1947;65292;65106;16306;65241;2695;62723;71;65455;65478;0;0
365;1521879554;2074;65286;65119;16292;65240;2730;62752;73;65436;65510;0;0
366;1521879554;1857;65295;65116;16336;65260;2720;62761;95;65433;65532;0;0
367;1521879554;2065;65302;65116;16322;65246;2724;62724;77;65432;0;0;0
368;1521879554;1899;65304;65122;16260;65252;2743;62715;94;65455;65535;0;0
369;1521879555;2162;65305;65137;16296;65226;2735;62782;74;65433;65496;0;0
370;1521879555;1824;65309;65140;16273;65234;2718;62781;93;65455;65511;0;0
371;1521879555;2152;65281;65095;16299;65237;2708;62784;50;65410;65488;0;0
372;1521879555;1731;65306;65120;16340;65244;2734;62777;55;65444;65519;0;0
373;1521879555;1983;65273;65123;16310;65245;2725;62746;104;65429;65496;0;0
374;1521879555;2081;65321;65139;16259;65216;2724;62733;81;65427;2;0;0
375;1521879555;1812;65280;65130;16313;65234;2744;62772;73;65452;248;0;0
376;1521879555;2145;65299;65120;16293;65259;2770;62790;73;65442;65507;0;0
377;1521879555;1800;65299;65118;16309;65221;2721;62733;69;65427;65516;0;0
378;1521879555;2117;65290;65116;16301;65221;2736;62790;96;65423;65521;0;0
379;1521879556;1848;65322;65117;16281;65234;2685;62759;63;65464;65498;0;0
380;1521879556;2189;65287;65136;16295;65240;2703;62745;55;65445;65510;0;0
381;1521879556;1818;65293;65147;16292;65246;2716;62779;49;65444;65515;0;0
382;1521879556;1833;65292;65126;16228;65252;2750;62770;81;65436;65522;0;0
383;1521879556;2091;65293;65116;16318;65238;2712;62722;101;65456;65511;0;0
384;1521879556;1903;65273;65103;16286;65255;2757;62746;67;65431;65523;0;0
385;1521879556;2099;65301;65125;16347;65231;2715;62766;90;65439;65499;0;0
386;1521879556;1891;65304;65134;16275;65277;2723;62755;96;65422;65498;0;0
387;1521879556;2084;65279;65125;16256;65217;2719;62756;52;65443;65525;0;0
388;1521879557;1845;65306;65125;16266;65230;2709;62768;66;65426;13;0;0
389;1521879557;2174;65288;65117;16309;65300;2730;62733;74;65433;65515;0;0
390;1521879557;1812;65285;65109;16281;65262;2712;62759;97;65461;65533;0;0
391;1521879557;2233;65301;65133;16314;65284;2703;62773;51;65404;65502;0;0
392;1521879557;1792;65274;65120;16290;65264;2707;62781;72;65450;65501;0;0
393;1521879557;1896;65314;65121;16289;65276;2702;62759;55;65431;65513;0;0
394;1521879557;2036;65287;65149;16331;65238;2700;62809;77;65458;65508;0;0
395;1521879557;1939;65284;65136;16281;65237;2727;62757;71;65425;65532;0;0
396;1521879557;2116;65291;65139;16265;65244;2721;62765;82;65416;65528;0;0
397;1521879557;1861;65305;65155;16286;65254;2707;62783;72;65432;65508;0;0
398;1521879558;2136;65290;65119;16268;65245;2731;62774;77;65425;65531;0;0
399;1521879558;1762;65299;65135;16325;65228;2708;62789;69;65440;65494;0;0
400;1521879558;2276;65282;65130;16303;65232;2709;62779;63;65420;65505;0;0
401;1521879558;1739;65287;65134;16256;65250;2743;62762;64;65455;65517;0;0
402;1521879558;1934;65299;65121;16302;65268;2735;62791;90;65437;65522;0;0
403;1521879558;2074;65293;65147;16353;65275;2762;62730;110;65467;65500;0;0
404;1521879558;1907;65299;65128;16276;65255;2759;62766;67;65443;65509;0;0
405;1521879558;2089;65279;65104;16434;65291;2767;62803;64;65440;3;0;0
406;1521879558;1814;65265;65006;16425;65254;2720;62821;65533;65397;65503;0;0
407;1521879558;2156;65408;65276;16043;65260;2713;62785;72;65411;65511;0;0
408;1521879559;1839;65151;65197;16221;65254;2730;62800;72;65425;65500;0;0
409;1521879559;2150;65392;65148;16292;65241;2738;62754;103;65456;65502;0;0
410;1521879559;1803;65199;65125;16295;65258;2761;62783;105;65434;65510;0;0
411;1521879559;2181;65381;65115;16337;65248;2749;62792;80;65427;65515;0;0
412;1521879559;2068;65219;65109;16288;65226;2732;62761;77;65434;65500;0;0
413;1521879559;1922;65375;65127;16292;65229;2744;62760;75;65440;65516;0;0
414;1521879559;2077;65281;65118;16342;65249;2753;62746;92;65452;65512;0;0
415;1521879559;1899;65332;65087;16324;65250;2726;62773;98;65443;65522;0;0
416;1521879559;2043;65294;65124;16292;65249;2744;62800;64;65456;65525;0;0
417;1521879560;1839;65299;65114;16337;65255;2798;62775;106;65448;65521;0;0
418;1521879560;2141;65315;65153;16356;65246;2745;62828;89;65439;65492;0;0
419;1521879560;1847;65268;65149;16292;65252;2750;62873;73;65415;65504;0;0
420;1521879560;2220;65333;65146;16297;65271;2756;62847;105;65442;65501;0;0
421;1521879560;2067;65272;65122;16227;65233;2742;62801;102;65429;65499;0;0
422;1521879560;1877;65325;65156;16275;65223;2719;62789;84;65438;65526;0;0
423;1521879560;2056;65258;65135;16376;65222;2709;62798;95;65417;65501;0;0
424;1521879560;1895;65328;65134;16284;65256;2742;62807;73;65433;65510;0;0
425;1521879560;2085;65283;65121;16318;65242;2735;62821;90;65435;65512;0;0
426;1521879560;1865;65289;65144;16309;65232;2745;62881;88;65454;65530;0;0
427;1521879561;2162;65311;65128;16295;65239;2745;62813;78;65397;65516;0;0
428;1521879561;1732;65269;65123;16338;65218;2750;62796;92;65459;9;0;0
429;1521879561;2221;65314;65098;16301;65243;2750;62777;75;65457;65510;0;0
430;1521879561;2035;65307;65134;16292;65272;2751;62837;49;65425;0;0;0
431;1521879561;1923;65293;65126;16328;65254;2761;62795;61;65440;65522;0;0
432;1521879561;2094;65313;65140;16308;65234;2770;62803;70;65436;65496;0;0
433;1521879561;1815;65299;65122;16332;65253;2749;62799;68;65444;65500;0;0
434;1521879561;2136;65311;65126;16287;65265;2740;62798;101;65457;65507;0;0
435;1521879561;1824;65282;65121;16291;65264;2750;62814;82;65438;65509;0;0
436;1521879562;2149;65297;65142;16319;65244;2772;62798;89;65439;0;0;0
437;1521879562;1795;65282;65105;16297;65220;2736;62770;71;65436;65505;0;0
438;1521879562;2075;65287;65113;16296;65235;2733;62771;80;65458;65516;0;0
439;1521879562;1776;65284;65116;16342;65250;2722;62777;62;65444;65503;0;0
440;1521879562;1818;65277;65130;16302;65262;2763;62783;82;65444;65512;0;0
441;1521879562;2054;65325;65138;16298;65264;2752;62831;82;65437;65519;0;0
442;1521879562;1912;65260;65139;16293;65260;2708;62732;71;65438;65523;0;0
443;1521879562;2111;65306;65129;16295;65242;2726;62769;87;65450;65519;0;0
444;1521879562;1890;65324;65124;16292;65250;2699;62776;60;65435;65506;0;0
445;1521879562;2072;65279;65116;16318;65287;2731;62800;71;65423;65471;0;0
446;1521879563;1865;65309;65146;16258;65251;2732;62768;57;65438;65518;0;0
447;1521879563;2193;65287;65137;16307;65245;2720;62778;87;65472;65507;0;0
448;1521879563;1744;65286;65146;16334;65261;2749;62776;59;65444;65506;0;0
449;1521879563;1972;65317;65113;16312;65282;2766;62739;81;65444;65522;0;0
450;1521879563;2015;65298;65134;16329;65250;2767;62770;94;65435;65500;0;0
451;1521879563;1905;65289;65126;16301;65292;2741;62815;78;65472;65498;0;0
452;1521879563;2064;65294;65124;16303;65272;2749;62797;83;65451;65532;0;0
453;1521879563;1933;65293;65119;16343;65256;2742;62799;56;65423;65485;0;0
454;1521879563;2164;65283;65112;16299;65240;2754;62790;81;65442;65523;0;0
455;1521879563;1835;65029;65140;16301;65241;2764;62784;73;65429;65504;0;0
456;1521879564;2178;65290;65125;16294;65234;2744;62802;77;65431;65519;0;0
457;1521879564;1747;65280;65123;16301;65268;2766;62788;78;65446;65508;0;0
458;1521879564;1968;65324;65135;16294;65243;2718;62795;105;65438;65492;0;0
459;1521879564;1773;65280;65139;16283;65292;2752;62795;81;65434;65509;0;0
460;1521879564;1918;65301;65127;16276;65226;2709;62745;91;65452;65520;0;0
461;1521879564;2086;65301;65139;16314;65242;2739;62769;53;65443;65513;0;0
462;1521879564;1853;65295;65133;16337;65262;2730;62756;34;65452;65506;0;0
463;1521879564;2164;65289;65124;16286;65255;2752;62797;76;65436;65522;0;0
464;1521879564;1855;65305;65130;16296;65251;2727;62781;80;65444;65521;0;0
465;1521879565;2201;65293;65122;16296;65232;2767;62806;75;65431;1;0;0
466;1521879565;1831;65312;65145;16318;65239;2768;62774;82;65426;65475;0;0
467;1521879565;2140;65281;65135;16296;65241;2762;62780;89;65425;65498;0;0
468;1521879565;1831;65304;65121;16294;65225;2764;62784;90;65421;65508;0;0
469;1521879565;1860;65304;65142;16305;65236;2735;62786;62;65453;65494;0;0
470;1521879565;2090;65284;65128;16311;65228;2743;62828;86;65452;65491;0;0
471;1521879565;1928;65305;65131;16302;65205;2798;62861;61;65436;65531;0;0
472;1521879565;2012;65531;65144;16290;65241;2781;62790;84;65443;65492;0;0
473;1521879565;1920;65303;65133;16302;65198;2727;62833;66;65444;65522;0;0
474;1521879565;2056;65301;65113;16296;65234;2769;62785;57;65437;65512;0;0
475;1521879566;1832;65304;65125;16332;65248;2740;62815;75;65425;65503;0;0
476;1521879566;2246;65288;65121;16308;65242;2742;62786;70;65399;65502;0;0
477;1521879566;1799;65315;65125;16299;65224;2752;62771;45;65428;65517;0;0
478;1521879566;1912;65284;65135;16305;65219;2744;62814;77;65406;65533;0;0
479;1521879566;2051;65286;65119;16314;65266;2750;62814;87;65435;65510;0;0
480;1521879566;1911;65308;65137;16301;65239;2703;62780;59;65427;65518;0;0
481;1521879566;2080;65264;65124;16320;65263;2736;62780;62;65452;65509;0;0
482;1521879566;1897;65288;65133;16269;65247;2759;62804;75;65434;65512;0;0
483;1521879566;2148;65268;65156;16293;65248;2735;62774;57;65443;65515;0;0
484;1521879567;1727;65283;65154;16309;65256;2743;62780;78;65455;65525;0;0
485;1521879567;2245;65286;65129;16293;65231;2725;62787;56;65424;65500;0;0
486;1521879567;1948;65311;65139;16268;65269;2724;62782;61;65436;65527;0;0
487;1521879567;1995;65284;65127;16333;65241;2716;62790;61;65422;65533;0;0
488;1521879567;2093;65295;65129;16297;65269;2787;62785;68;65441;65524;0;0
489;1521879567;1919;65285;65133;16304;65235;2733;62794;103;65439;65506;0;0
490;1521879567;2124;65294;65127;16303;65237;2724;62811;90;65420;65511;0;0
491;1521879567;1836;65291;65125;16292;65247;2785;62786;54;65428;65511;0;0
492;1521879567;2158;65315;65144;16287;65240;2746;62779;55;65442;65526;0;0
493;1521879567;1846;65295;65139;16292;65263;2748;62790;116;65418;65523;0;0
494;1521879568;2158;65287;65131;16293;65187;2754;62760;78;65432;65521;0;0
495;1521879568;1771;65315;65140;16326;65274;2733;62795;67;65427;65502;0;0
496;1521879568;1910;65292;65124;16252;65218;2769;62783;54;65448;65509;0;0
497;1521879568;2097;65309;65133;16301;65237;2752;62781;58;65428;7;0;0
498;1521879568;1936;65288;65139;16312;65245;2766;62776;73;65445;65502;0;0
499;1521879568;2103;65318;65121;16283;65222;2777;62833;80;65429;65513;0;0
500;1521879568;1898;65286;65127;16299;65250;2764;62783;82;65458;65499;0;0
501;1521879568;2078;65295;65136;16291;65227;2804;62783;58;65422;65500;0;0
502;1521879568;1893;65305;65117;16267;65264;2777;62761;97;65435;65525;0;0
503;1521879568;2188;65279;65125;16303;65224;2810;62803;64;65434;4;0;0
504;1521879569;1784;65282;65141;16388;65247;2808;62804;90;65430;65528;0;0
505;1521879569;1941;65263;65118;16313;65250;2776;62758;85;65421;65507;0;0
506;1521879569;2029;65302;65144;16317;65249;2796;62721;90;65429;65487;0;0
507;1521879569;1958;65316;65109;16305;65215;2799;62786;65;65438;65524;0;0
508;1521879569;1995;65533;65126;16293;65264;2802;62757;73;65460;65529;0;0
509;1521879569;1877;65286;65135;16325;65209;2790;62762;75;65430;65507;0;0
510;1521879569;2107;65288;65130;16278;65270;2751;62805;81;65441;65486;0;0
511;1521879569;1745;65306;65124;16289;65232;2734;62773;74;65422;65527;0;0
512;1521879569;2199;65280;65138;16339;65236;2770;62766;75;65435;65519;0;0
513;1521879570;1713;65293;65121;16287;65223;2763;62774;84;65440;65480;0;0
514;1521879570;2214;65304;65133;16356;65219;2739;62794;73;65437;65516;0;0
515;1521879570;1749;65289;65107;16314;65238;2766;62763;58;65397;65513;0;0
516;1521879570;1913;65303;65129;16288;65252;2749;62804;50;65442;65493;0;0
517;1521879570;2103;65306;65141;16323;65237;2751;62770;70;65430;65512;0;0
518;1521879570;1788;65304;65120;16291;65247;2742;62817;94;65442;65505;0;0
519;1521879570;2143;65303;65125;16292;65281;2751;62776;104;65440;65504;0;0
520;1521879570;1837;65295;65137;16315;65227;2789;62831;66;65414;65500;0;0
521;1521879570;2137;65300;65120;16295;65262;2767;62803;109;65451;65517;0;0
522;1521879570;1855;65318;65124;16312;65191;2762;62787;99;65456;65499;0;0
523;1521879571;2209;65297;65129;16310;65228;2794;62811;85;65419;65491;0;0
524;1521879571;1776;65281;65118;16282;65234;2777;62771;100;65440;65496;0;0
525;1521879571;1904;65303;65132;16297;65260;2767;62778;43;65448;65513;0;0
526;1521879571;2067;65268;65153;16357;65237;2781;62806;87;65449;65513;0;0
527;1521879571;1902;65306;65123;16292;65255;2755;62780;57;65435;65502;0;0
528;1521879571;2095;65295;65146;16320;65239;2795;62814;86;65448;65516;0;0
529;1521879571;1888;65282;65126;16286;65258;2714;62774;83;65438;65513;0;0
530;1521879571;2136;65310;65123;16276;65274;2765;62773;76;65470;65511;0;0
531;1521879571;1879;65269;65141;16309;65256;2777;62796;60;65442;2;0;0
532;1521879572;2220;65318;65143;16304;65241;2755;62810;57;65420;65498;0;0
533;1521879572;1747;65284;65124;16297;65245;2756;62780;92;65430;65506;0;0
534;1521879572;2239;65293;65120;16307;65247;2758;62807;81;65434;65529;0;0
535;1521879572;2049;65293;65130;16296;65265;2773;62777;58;65444;65529;0;0
536;1521879572;1933;65288;65127;16316;65248;2771;62797;84;65431;65509;0;0
537;1521879572;2083;65299;65124;16298;65226;2765;62813;46;65447;65485;0;0
538;1521879572;1885;65295;65132;16309;65238;2733;62771;78;65421;65513;0;0
539;1521879572;2130;65317;65136;16274;65265;2751;62767;53;65427;65505;0;0
540;1521879572;1821;65300;65137;16318;65242;2736;62788;52;65433;65519;0;0
541;1521879572;2181;65285;65134;16261;65252;2740;62750;93;65442;65507;0;0
542;1521879573;1765;65298;65132;16356;65249;2732;62755;33;65457;65526;0;0
543;1521879573;2225;65298;65104;16307;65213;2710;62794;68;65429;65516;0;0
544;1521879573;2078;65293;65128;16282;65273;2757;62792;75;65411;65508;0;0
545;1521879573;1841;65284;65115;16329;65231;2727;62794;56;65431;65526;0;0
546;1521879573;2120;65289;65124;16300;65243;2742;62812;93;65464;65488;0;0
547;1521879573;1846;65284;65144;16287;65236;2754;62779;98;65428;65506;0;0
548;1521879573;2129;65292;65132;16269;65256;2760;62772;72;65437;9;0;0
549;1521879573;1854;65299;65123;16293;65258;2765;62789;56;65414;65518;0;0
550;1521879573;2090;65310;65133;16290;65230;2770;62805;73;65452;65512;0;0
551;1521879573;1855;65267;65129;16344;65257;2737;62807;67;65447;65501;0;0
552;1521879574;2183;65307;65117;16282;65259;2740;62757;52;65397;65507;0;0
553;1521879574;2061;65289;65144;16301;65242;2738;62806;69;65431;65520;0;0
554;1521879574;1894;65293;65122;16322;65236;2733;62781;78;65433;65518;0;0
555;1521879574;2063;65316;65145;16304;65225;2734;62834;91;65448;65496;0;0
556;1521879574;1936;65305;65131;16318;65212;2754;62807;85;65462;65514;0;0
557;1521879574;2008;65299;65112;16311;65224;2759;62817;67;65437;65503;0;0
558;1521879574;1877;65293;65123;16242;65214;2771;62801;94;65449;65517;0;0
559;1521879574;2166;65302;65139;16322;65214;2774;62860;49;65451;65502;0;0
560;1521879574;1787;65031;65125;16327;65184;2722;62795;51;65435;1;0;0
561;1521879575;2171;65307;65126;16256;65221;2744;62815;80;65441;65522;0;0
562;1521879575;1715;65030;65135;16331;65241;2744;62830;65;65430;65505;0;0
563;1521879575;1895;65309;65119;16257;65241;2785;62785;76;65425;65493;0;0
564;1521879575;2056;65306;65148;16308;65227;2767;62837;45;65420;65513;0;0
565;1521879575;1869;65284;65122;16307;65233;2770;62765;48;65425;65508;0;0
566;1521879575;2111;65311;65118;16313;65229;2746;62787;81;65441;16;0;0
567;1521879575;1785;65289;65136;16324;65230;2745;62807;79;65426;65504;0;0
568;1521879575;2150;65302;65136;16356;65231;2736;62815;81;65446;65521;0;0
569;1521879575;1805;65308;65131;16307;65211;2776;62822;66;65450;65524;0;0
570;1521879575;2236;65304;65132;16298;65239;2741;62778;80;65423;253;0;0
571;1521879576;1736;65278;65130;16285;65242;2755;62793;70;65443;65494;0;0
572;1521879576;1931;65304;65146;16296;65229;2746;62807;75;65417;65482;0;0
573;1521879576;2082;65301;65128;16308;65209;2762;62813;75;65445;65518;0;0
574;1521879576;1891;65286;65117;16320;65247;2774;62792;70;65428;65518;0;0
575;1521879576;2152;65317;65123;16272;65236;2747;62821;51;65448;65507;0;0
576;1521879576;1870;65290;65131;16325;65217;2747;62815;78;65462;65504;0;0
577;1521879576;2147;65291;65131;16287;65217;2725;62802;49;65424;65499;0;0
578;1521879576;1835;65296;65131;16337;65241;2773;62782;92;65438;65518;0;0
579;1521879576;2163;65298;65110;16347;65261;2767;62851;76;65420;65502;0;0
580;1521879577;1772;65283;65117;16272;65215;2727;62810;67;65444;65511;0;0
581;1521879577;1926;65306;65134;16302;65211;2754;62770;59;65445;65514;0;0
582;1521879577;2041;65292;65118;16285;65240;2735;62776;77;65442;65494;0;0
583;1521879577;1883;65289;65121;16316;65203;2754;62790;68;65431;65503;0;0
584;1521879577;1981;65296;65129;16300;65237;2742;62769;43;65450;65520;0;0
585;1521879577;1901;65279;65110;16314;65222;2748;62779;60;65434;65513;0;0
586;1521879577;2111;65313;65140;16293;65233;2730;62754;89;65437;65509;0;0
587;1521879577;1852;65307;65134;16314;65258;2744;62739;85;65423;65498;0;0
588;1521879577;2218;65292;65125;16299;65234;2732;62772;65;65422;65483;0;0
589;1521879577;1758;65308;65126;16314;65237;2789;62788;71;65452;65520;0;0
590;1521879578;2280;65280;65121;16302;65229;2754;62796;84;65447;65525;0;0
591;1521879578;1997;65301;65137;16296;65232;2743;62847;54;65444;65526;0;0
592;1521879578;1925;65283;65138;16292;65266;2729;62791;81;65447;65496;0;0
593;1521879578;2111;65289;65132;16318;65211;2746;62837;57;65437;65472;0;0
594;1521879578;1854;65280;65123;16298;65225;2700;62784;102;65440;65509;0;0
595;1521879578;2154;65298;65128;16298;65243;2748;62777;94;65449;65524;0;0
596;1521879578;1794;65302;65125;16281;65228;2726;62781;75;65429;65493;0;0
597;1521879578;2186;65289;65117;16301;65221;2747;62826;51;65442;65488;0;0
598;1521879578;1770;65305;65136;16328;65255;2735;62815;59;65427;65498;0;0
599;1521879578;2215;65291;65138;16295;65238;2742;62860;76;65447;65525;0;0
600;1521879579;2047;65309;65145;16288;65252;2772;62812;78;65412;65504;0;0
 counter ; timestamp ; amplitude ; accx ; accy ; accz ; magx ; magy ; magz ; gyrx ; gyry ; gyrz ; temp ; act state
1;1521882840;2266;65168;65151;16335;65152;2311;63070;99;65439;65504;0;0
2;1521882840;1858;65157;65161;16321;65134;2329;63087;62;65454;65508;0;0
3;1521882840;2145;65175;65162;16280;65194;2304;63108;69;65425;65532;0;0
4;1521882841;1826;65177;65166;16344;65184;2269;63096;98;65448;65520;0;0
5;1521882841;1921;65158;65152;16333;65152;2316;63091;87;65426;65485;0;0
6;1521882841;2031;65190;65160;16296;65125;2320;63087;78;65454;65520;0;0
7;1521882841;1900;65173;65162;16290;65148;2289;63071;68;65413;65498;0;0
8;1521882841;2042;65184;65177;16292;65177;2306;63086;82;65417;65480;0;0
9;1521882841;1910;65173;65169;16289;65164;2323;63076;75;65444;65515;0;0
10;1521882841;2089;65191;65166;16287;65150;2318;63134;63;65457;65525;0;0
11;1521882841;1882;65166;65188;16289;65134;2326;63125;69;65426;65505;0;0
12;1521882841;2231;65211;65153;16361;65166;2305;63135;78;65435;65507;0;0
13;1521882841;1575;65137;65154;16261;65147;2303;63094;63;65436;65521;0;0
14;1521882841;1999;65202;65124;16343;65106;2293;63091;86;65437;65512;0;0
15;1521882842;1771;65156;65172;16294;65153;2323;63083;86;65472;65490;0;0
16;1521882842;2177;65138;65171;16318;65158;2310;63065;97;65452;65485;0;0
17;1521882842;1751;65166;65131;16331;65142;2318;63080;52;65452;65519;0;0
18;1521882842;2101;65143;65136;16254;65146;2290;63106;74;65431;65520;0;0
19;1521882842;1807;65203;65241;16238;65137;2287;63098;88;65427;65528;0;0
20;1521882842;2181;65200;65188;16282;65131;2319;63032;58;65452;65531;0;0
21;1521882842;1887;65145;65233;16229;65128;2313;63142;99;65446;65520;0;0
22;1521882842;2015;65222;65144;16351;65160;2316;63089;72;65434;65502;0;0
23;1521882842;1908;65156;65150;16286;65178;2294;63113;103;65450;65515;0;0
24;1521882842;1948;65145;65193;16255;65140;2319;63103;105;65409;65496;0;0
25;1521882843;2104;65200;65174;16306;65136;2299;63071;66;65452;65507;0;0
26;1521882843;1875;65163;65228;16293;65114;2285;63098;82;65455;65515;0;0
27;1521882843;2095;65161;65152;16309;65143;2287;63122;93;65424;65495;0;0
28;1521882843;1841;65183;65160;16266;65119;2289;63128;78;65452;253;0;0
29;1521882843;2131;65163;65290;16173;65135;2315;63136;94;65440;65516;0;0
30;1521882843;1823;65237;65170;16267;65145;2309;63094;80;65434;65513;0;0
31;1521882843;2194;65095;65201;16252;65149;2309;63088;35;65478;65496;0;0
32;1521882843;2021;65216;65129;16327;65172;2304;63118;66;65416;65511;0;0
33;1521882843;1912;65144;65197;16316;65157;2315;63113;69;65450;65478;0;0
34;1521882844;2088;65145;65176;16258;65145;2289;63105;71;65452;65514;0;0
35;1521882844;1893;65204;65150;16312;65152;2298;63097;80;65437;65534;0;0
36;1521882844;2086;65115;65184;16296;65142;2314;63080;80;65430;1;0;0
37;1521882844;1842;65203;65138;16261;65162;2301;63049;70;65453;65512;0;0
38;1521882844;2115;65164;65163;16318;65156;2295;63094;72;65445;65509;0;0
39;1521882844;1822;65165;65174;16341;65179;2311;63086;95;65429;65509;0;0
40;1521882844;2194;65167;65154;16314;65145;2314;63076;76;65453;65518;0;0
41;1521882844;2026;65163;65156;16358;65124;2339;63080;80;65423;65495;0;0
42;1521882844;1903;65199;65146;16401;65140;2315;63040;50;65453;65517;0;0
43;1521882844;2047;65170;65200;16306;65140;2278;63084;58;65447;22;0;0
44;1521882845;1916;65188;65198;16257;65145;2282;63069;63;65422;65500;0;0
45;1521882845;2087;65125;65065;16484;65126;2288;63072;101;65418;65518;0;0
46;1521882845;1884;65118;65163;16310;65153;2289;63088;48;65447;65507;0;0
47;1521882845;1990;65225;65161;16311;65149;2308;63056;58;65437;65486;0;0
48;1521882845;1830;65166;65179;16339;65147;2314;63078;98;65442;65503;0;0
49;1521882845;2207;65177;65165;16283;65146;2275;63092;79;65419;65520;0;0
50;1521882845;1820;65193;65148;16309;65163;2315;63087;55;65417;65518;0;0
51;1521882845;2182;65122;65199;16298;65142;2311;63089;47;65410;65502;0;0
52;1521882845;2066;65193;65158;16322;65145;2300;63066;71;65438;65511;0;0
53;1521882846;1905;65157;65187;16259;65119;2309;63071;75;65446;65527;0;0
54;1521882846;2082;65183;65172;16330;65137;2304;63084;87;65444;65512;0;0
55;1521882846;1886;65157;65207;16266;65162;2298;63037;62;65463;0;0;0
56;1521882846;2143;65162;65160;16338;65152;2321;63087;80;65441;65523;0;0
57;1521882846;1862;65213;65171;16297;65153;2312;63057;71;65419;65520;0;0
58;1521882846;2120;65096;65197;16269;65154;2325;63051;100;65434;65512;0;0
59;1521882846;1747;65254;65175;16421;65148;2305;63069;103;65413;65492;0;0
60;1521882846;2158;65115;65194;16164;65156;2289;63042;109;65449;65522;0;0
61;1521882846;2023;65279;65155;16286;65161;2310;63069;66;65456;65492;0;0
62;1521882846;1924;65054;65123;16388;65151;2303;63087;63;65434;65504;0;0
63;1521882847;2098;65176;65169;16391;65176;2337;63034;86;65442;65506;0;0
64;1521882847;1911;65169;65088;16512;65165;2317;63065;81;65446;65518;0;0
65;1521882847;2084;65079;65111;16267;65161;2299;63071;82;65443;65525;0;0
66;1521882847;1876;65266;65136;16343;65154;2333;63037;107;65442;65494;0;0
67;1521882847;2161;65121;65195;16258;65178;2312;63072;67;65438;65491;0;0
68;1521882847;1848;65177;65145;16297;65144;2326;63071;55;65439;65500;0;0
69;1521882847;2222;65199;65166;16293;65158;2342;63056;40;65438;65512;0;0
70;1521882847;2027;65140;65168;16305;65134;2317;63089;66;65404;4;0;0
71;1521882847;1939;65208;65099;16306;65163;2347;63079;83;65456;4;0;0
72;1521882847;2071;65139;65164;16305;65128;2295;63028;72;65439;65527;0;0
73;1521882848;1931;65192;65120;16303;65149;2291;63069;64;65450;65493;0;0
74;1521882848;2097;65152;65160;16306;65154;2290;63080;75;65434;65525;0;0
75;1521882848;1864;65147;65168;16297;65138;2332;63079;97;65445;65526;0;0
76;1521882848;2142;65212;65162;16298;65150;2311;63069;83;65441;65490;0;0
77;1521882848;1841;65150;65142;16344;65155;2315;63061;71;65425;65533;0;0
78;1521882848;2174;65173;65147;16296;65119;2290;63072;72;65409;65497;0;0
79;1521882848;1790;65157;65153;16314;65135;2292;63048;62;65426;65512;0;0
80;1521882848;1913;65175;65156;16326;65112;2334;63060;105;65448;65523;0;0
81;1521882848;2061;65180;65155;16292;65157;2307;63101;82;65445;65521;0;0
82;1521882849;1921;65172;65153;16322;65134;2309;63094;75;65452;65515;0;0
83;1521882849;2111;65174;65147;16313;65138;2287;63093;91;65465;65511;0;0
84;1521882849;1897;65151;65145;16321;65132;2289;63065;61;65447;65509;0;0
85;1521882849;2097;65181;65140;16336;65165;2321;63109;103;65430;65522;0;0
86;1521882849;1811;65142;65155;16338;65168;2323;63056;108;65431;65515;0;0
87;1521882849;2202;65179;65146;16318;65142;2279;63076;89;65430;65485;0;0
88;1521882849;1787;65176;65171;16292;65126;2272;63085;76;65456;65523;0;0
89;1521882849;1916;65183;65158;16305;65144;2303;63051;91;65443;65526;0;0
90;1521882849;2076;65167;65147;16349;65150;2297;63100;87;65457;12;0;0
91;1521882849;1917;65158;65141;16304;65135;2327;63125;80;65439;65518;0;0
92;1521882850;2070;65156;65167;16325;65138;2298;63035;66;65436;65530;0;0
93;1521882850;1885;65160;65150;16372;65146;2303;63061;79;65436;65535;0;0
94;1521882850;2082;65188;65145;16290;65126;2319;63099;60;65433;65528;0;0
95;1521882850;1993;65160;65170;16313;65139;2335;63101;60;65440;65526;0;0
96;1521882850;2179;65201;65278;16199;65121;2552;63113;65;65428;65512;0;0
97;1521882850;1758;65198;65171;16231;65125;2283;63063;75;65434;65500;0;0
98;1521882850;2203;65124;65215;16325;65137;2279;63113;59;65438;65522;0;0
99;1521882850;2033;65199;65083;16410;65146;2299;63075;62;65437;65505;0;0
100;1521882850;1928;65110;65150;16362;65144;2292;63045;75;65450;255;0;0
101;1521882851;2079;65229;65139;16322;65141;2272;63053;92;65444;255;0;0
102;1521882851;1910;65157;65167;16299;65129;2255;63084;80;65453;65521;0;0
103;1521882851;2102;65153;65162;16307;65142;2276;63089;78;65433;65518;0;0
104;1521882851;1822;65210;65095;16326;65161;2249;63086;76;65429;65514;0;0
105;1521882851;2141;65099;65210;16309;65112;2292;63092;62;65442;65521;0;0
106;1521882851;1822;65210;65125;16348;65132;2294;63070;83;65442;65525;0;0
107;1521882851;2143;65176;65150;16253;65120;2316;63100;74;65447;65504;0;0
108;1521882851;2049;65193;65344;16107;65127;2274;63108;85;65438;65514;0;0
109;1521882851;1622;65263;65166;16243;65146;2276;63092;69;65434;65504;0;0
110;1521882851;2069;65128;65202;16170;65121;2291;63125;92;65435;65498;0;0
111;1521882852;1920;65193;65125;16351;65131;2283;63122;82;65447;65508;0;0
112;1521882852;2105;65158;65125;16381;65140;2287;63117;67;65467;5;0;0
113;1521882852;1849;65145;65155;16312;65096;2262;63155;64;65444;65510;0;0
114;1521882852;2169;65209;65156;16335;65140;2289;63095;65;65429;65495;0;0
115;1521882852;1835;65126;65311;16139;65143;2291;63111;91;65447;0;0;0
116;1521882852;1951;65223;65194;16197;65100;2267;63102;96;65444;65501;0;0
117;1521882852;2071;65145;65234;16298;65132;2289;63071;94;65463;65501;0;0
118;1521882852;1903;65175;65120;16367;65158;2284;63138;78;65442;65499;0;0
119;1521882852;2065;65159;65129;16389;65158;2304;63122;111;65457;65511;0;0
120;1521882852;1909;65159;65111;16422;65133;2326;63096;85;65455;65525;0;0
121;1521882853;2122;65165;65070;16335;65150;2338;63108;97;65446;65509;0;0
122;1521882853;1879;65159;65104;16240;65131;2341;63100;120;65440;65506;0;0
123;1521882853;2162;65101;65001;16592;65126;2307;63085;132;65444;65532;0;0
124;1521882853;1825;65127;65046;16388;65138;2312;63096;92;65426;65524;0;0
125;1521882853;1959;65204;65120;16383;65135;2301;63089;39;65452;65493;0;0
126;1521882853;1818;65172;65083;16189;65158;2302;63147;65526;65470;65513;0;0
127;1521882853;1918;65172;65101;16333;65183;2310;63135;65;65422;65508;0;0
128;1521882853;2050;65134;65078;16407;65122;2272;63104;34;65458;65533;0;0
129;1521882853;1904;65137;65129;16392;65134;2306;63084;49;65435;65489;0;0
130;1521882854;2123;65233;65207;16116;65128;2277;63096;50;65442;65503;0;0
131;1521882854;1794;65170;65201;16197;65141;2287;63095;133;65438;65514;0;0
132;1521882854;2165;65193;65178;16121;65150;2306;63095;88;65466;65527;0;0
133;1521882854;1858;65177;65220;16163;65133;2272;63101;60;65433;65530;0;0
134;1521882854;2198;65194;65188;16305;65164;2282;63065;67;65434;65514;0;0
135;1521882854;1787;65167;65142;16272;65135;2308;63121;61;65430;65492;0;0
136;1521882854;1939;65200;65144;16290;65147;2299;63084;96;65429;65514;0;0
137;1521882854;2056;65127;65139;16320;65149;2320;63101;68;65454;65502;0;0
138;1521882854;1900;65179;65207;16288;65144;2282;63073;100;65433;65500;0;0
139;1521882854;2086;65168;65134;16325;65116;2325;63120;106;65453;65522;0;0
140;1521882855;1889;65142;65162;16272;65136;2308;63098;69;65420;65491;0;0
141;1521882855;2134;65183;65126;16351;65146;2286;63116;96;65444;65514;0;0
142;1521882855;1826;65137;65102;16318;65151;2295;63116;91;65442;65501;0;0
143;1521882855;2191;65166;65171;16332;65138;2318;63095;90;65433;65514;0;0
144;1521882855;1898;65156;65081;16387;65148;2295;63080;64;65443;65527;0;0
145;1521882855;1949;65164;65220;16217;65166;2316;63065;81;65436;65518;0;0
146;1521882855;2046;65226;65139;16230;65147;2302;63054;99;65455;65514;0;0
147;1521882855;1917;65106;65173;16175;65155;2298;63056;80;65459;65497;0;0
148;1521882855;2102;65171;65134;16302;65124;2260;63107;63;65463;65516;0;0
149;1521882856;1893;65224;65107;16207;65173;2273;63065;56;65454;65532;0;0
150;1521882856;2133;65117;65225;16303;65147;2301;63098;72;65455;65511;0;0
151;1521882856;1824;65214;65068;16359;65185;2297;63073;50;65434;65523;0;0
152;1521882856;2197;65130;65194;16306;65137;2307;63109;83;65442;10;0;0
153;1521882856;1826;65180;65152;16257;65137;2301;63180;90;65391;65529;0;0
154;1521882856;1950;65232;65254;15905;65136;2287;63132;95;65436;65496;0;0
155;1521882856;2067;65180;65345;16303;65170;2290;63143;48;65449;65531;0;0
156;1521882856;1905;65220;65203;16352;65175;2289;63119;107;65418;65494;0;0
157;1521882856;2093;65107;65122;16320;65178;2260;63103;88;65422;3;0;0
158;1521882856;1894;65161;65140;16359;65128;2281;63089;102;65439;6;0;0
159;1521882857;2114;65173;65175;16250;65123;2286;63104;117;65448;65523;0;0
160;1521882857;1814;65149;65152;16295;65166;2269;63123;68;65451;65503;0;0
161;1521882857;2127;65179;65160;16294;65159;2285;63089;61;65438;65495;0;0
162;1521882857;1523;65129;65153;16293;65175;2314;63145;83;65463;65521;0;0
163;1521882857;1942;65174;65155;16356;65145;2270;63077;68;65436;65521;0;0
164;1521882857;2077;65178;65150;16300;65153;2292;63118;102;65454;65512;0;0
165;1521882857;1885;65164;65152;16295;65136;2300;63131;73;65416;65503;0;0
166;1521882857;2100;65178;65180;16315;65152;2285;63112;64;65440;65525;0;0
167;1521882857;1883;65157;65144;16334;65183;2255;63107;87;65450;65505;0;0
168;1521882857;2111;65185;65153;16306;65145;2289;63148;87;65449;65494;0;0
169;1521882858;1853;65162;65170;16308;65152;2276;63154;94;65438;65503;0;0
170;1521882858;2170;65160;65156;16292;65143;2278;63124;82;65460;65501;0;0
171;1521882858;1744;65120;65114;16343;65136;2286;63184;70;65418;65517;0;0
172;1521882858;1962;65165;65127;16338;65155;2289;63181;72;65470;65506;0;0
173;1521882858;2085;65156;65150;16301;65160;2299;63156;79;65413;65498;0;0
174;1521882858;1940;65179;65142;16278;65156;2325;63097;100;65426;65514;0;0
175;1521882858;2073;65163;65153;16301;65149;2300;63171;85;65450;65503;0;0
176;1521882858;1842;65166;65145;16293;65153;2284;63156;82;65448;65517;0;0
177;1521882858;2144;65157;65145;16287;65144;2283;63129;69;65429;65514;0;0
178;1521882859;1869;65165;65150;16300;65147;2298;63141;72;65438;65502;0;0
179;1521882859;2179;65170;65158;16356;65171;2317;63158;76;65430;7;0;0
180;1521882859;1765;65169;65133;16301;65176;2271;63147;64;65437;65526;0;0
181;1521882859;2185;65171;65157;16293;65174;2286;63147;71;65435;1;0;0
182;1521882859;2062;65170;65154;16314;65143;2279;63152;107;65416;65513;0;0
183;1521882859;1890;65150;65144;16294;65174;2318;63189;62;65449;65529;0;0
184;1521882859;2067;65176;65150;16281;65137;2295;63139;82;65439;11;0;0
185;1521882859;1876;65173;65156;16321;65175;2282;63148;79;65412;65506;0;0
186;1521882859;2121;65170;65148;16326;65149;2290;63107;72;65442;2;0;0
187;1521882859;1852;65176;65138;16302;65152;2274;63130;83;65430;2;0;0
188;1521882860;2153;65173;65137;16333;65169;2285;63083;41;65437;65498;0;0
189;1521882860;1828;65151;65144;16325;65132;2274;63124;53;65455;65509;0;0
190;1521882860;2190;65166;65136;16300;65180;2250;63117;90;65422;65515;0;0
191;1521882860;2071;65155;65152;16294;65177;2283;63117;73;65451;0;0;0
192;1521882860;1957;65161;65147;16330;65165;2258;63083;67;65439;6;0;0
193;1521882860;2089;65150;65139;16295;65124;2278;63147;68;65428;65529;0;0
194;1521882860;1864;65163;65150;16298;65179;2260;63080;82;65442;65505;0;0
195;1521882860;2066;65166;65152;16318;65169;2285;63097;92;65427;65513;0;0
196;1521882860;1896;65168;65135;16299;65187;2288;63129;89;65436;65498;0;0
197;1521882861;2149;65155;65150;16293;65132;2260;63096;83;65425;65491;0;0
198;1521882861;1827;65168;65149;16324;65150;2285;63134;82;65429;4;0;0
199;1521882861;2169;65159;65182;16306;65143;2279;63130;57;65435;65526;0;0
200;1521882861;1995;65181;65148;16272;65137;2269;63133;86;65447;65528;0;0
201;1521882861;1956;65160;65152;16317;65156;2302;63071;107;65436;65516;0;0
202;1521882861;2080;65181;65145;16301;65159;2311;63112;116;65441;65519;0;0
203;1521882861;1910;65173;65140;16273;65137;2296;63114;83;65448;65496;0;0
204;1521882861;2055;65166;65164;16312;65122;2292;63151;59;65446;65508;0;0
205;1521882861;1880;65175;65147;16309;65166;2292;63136;79;65469;65502;0;0
206;1521882861;2154;65149;65141;16294;65187;2326;63146;92;65441;65530;0;0
207;1521882862;1868;65174;65138;16315;65159;2298;63152;64;65459;65494;0;0
208;1521882862;2167;65169;65134;16321;65146;2306;63133;70;65440;65488;0;0
209;1521882862;1843;65164;65161;16296;65151;2312;63114;74;65410;65508;0;0
210;1521882862;1953;65189;65127;16302;65149;2275;63062;97;65459;65529;0;0
211;1521882862;2138;65158;65144;16349;65113;2252;63108;65;65456;0;0;0
212;1521882862;1938;65178;65143;16302;65134;2275;63106;100;65444;65491;0;0
213;1521882862;2113;65170;65153;16246;65128;2268;63090;47;65421;65515;0;0
214;1521882862;1851;65157;65143;16323;65151;2309;63118;91;65465;65513;0;0
215;1521882862;2123;65181;65152;16273;65157;2267;63123;91;65452;65523;0;0
216;1521882862;1887;65166;65160;16285;65159;2286;63139;50;65461;65504;0;0
217;1521882863;2191;65183;65159;16351;65186;2263;63107;52;65442;65531;0;0
218;1521882863;1781;65153;65141;16303;65137;2329;63117;72;65464;65523;0;0
219;1521882863;1895;65169;65150;16293;65136;2313;63101;81;65439;65511;0;0
220;1521882863;2045;65179;65158;16318;65138;2313;63111;90;65440;65528;0;0
221;1521882863;1905;65176;65147;16326;65137;2298;63114;94;65468;65515;0;0
222;1521882863;2078;65184;65143;16310;65163;2276;63136;88;65446;65506;0;0
223;1521882863;1850;65200;65158;16290;65155;2257;63135;81;65448;65495;0;0
224;1521882863;2109;65161;65159;16330;65153;2276;63100;41;65473;65483;0;0
225;1521882863;1815;65169;65145;16293;65154;2259;63176;64;65447;65488;0;0
226;1521882864;2203;65176;65158;16293;65145;2260;63109;90;65442;65524;0;0
227;1521882864;1792;65164;65153;16327;65143;2291;63131;82;65445;65508;0;0
228;1521882864;1928;65164;65138;16343;65135;2297;63142;69;65445;65463;0;0
229;1521882864;2057;65172;65159;16304;65166;2300;63111;36;65434;65523;0;0
230;1521882864;1951;65164;65160;16351;65180;2319;63119;67;65450;65483;0;0
231;1521882864;2093;65180;65149;16303;65128;2312;63103;101;65445;65501;0;0
232;1521882864;1894;65165;65146;16287;65127;2295;63088;66;65430;65496;0;0
233;1521882864;2092;65165;65173;16329;65152;2338;63168;83;65444;65524;0;0
234;1521882864;1840;65171;65143;16351;65129;2301;63104;67;65440;65523;0;0
235;1521882864;2190;65169;65129;16309;65158;2319;63096;126;65438;2;0;0
236;1521882865;1832;65173;65156;16335;65152;2324;63087;81;65478;65507;0;0
237;1521882865;2167;65148;65136;16328;65154;2305;63100;75;65432;65504;0;0
238;1521882865;2008;65165;65141;16311;65161;2306;63116;67;65420;65515;0;0
239;1521882865;1916;65177;65151;16332;65176;2314;63153;92;65441;65508;0;0
240;1521882865;2093;65150;65154;16318;65141;2291;63097;67;65435;65527;0;0
241;1521882865;1888;65150;65148;16347;65131;2326;63106;102;65455;65526;0;0
242;1521882865;2085;65164;65144;16339;65157;2283;63147;101;65435;65509;0;0
243;1521882865;1835;65139;65151;16336;65131;2295;63132;81;65446;65513;0;0
244;1521882865;2176;65155;65132;16315;65138;2295;63089;97;65450;65512;0;0
245;1521882866;1859;65162;65145;16310;65166;2278;63079;98;65429;0;0;0
246;1521882866;2122;65162;65153;16349;65168;2271;63099;89;65463;65521;0;0
247;1521882866;2056;65166;65147;16293;65140;2298;63097;68;65455;65516;0;0
248;1521882866;1913;65174;65154;16321;65119;2339;63115;60;65453;2;0;0
249;1521882866;2056;65181;65121;16351;65141;2322;63125;75;65446;65521;0;0
250;1521882866;1924;65159;65147;16300;65154;2288;63116;52;65460;65525;0;0
251;1521882866;2104;65166;65155;16301;65142;2305;63148;68;65447;65521;0;0
252;1521882866;1848;65151;65148;16313;65136;2281;63110;95;65435;65512;0;0
253;1521882866;2141;65138;65163;16353;65106;2287;63115;86;65452;65491;0;0
254;1521882866;1826;65258;65196;15994;65084;2272;63104;58;65468;14;0;0
255;1521882867;1886;65169;65252;16229;65169;2279;63132;56;65444;65513;0;0
256;1521882867;1756;65215;65139;16385;65136;2268;63121;69;65430;65506;0;0
257;1521882867;1951;65103;65157;16281;65096;2292;63118;81;65413;65511;0;0
258;1521882867;2050;65201;65131;16399;65125;2313;63103;103;65430;65519;0;0
259;1521882867;1933;65193;65141;16338;65107;2324;63147;102;65450;65533;0;0
260;1521882867;2122;65145;65154;16233;65156;2303;63161;87;65466;65526;0;0
261;1521882867;1861;65180;65404;16269;65147;2293;63071;67;65497;65513;0;0
262;1521882867;2136;65190;65005;15980;65154;2322;63125;70;65444;65507;0;0
263;1521882867;1859;65046;65153;16399;65130;2348;63132;78;65454;65504;0;0
264;1521882867;2189;65226;65137;16370;65166;2318;63123;79;65442;65507;0;0
265;1521882868;1803;65131;65135;16294;65154;2341;63125;48;65447;65497;0;0
266;1521882868;1936;65192;65133;16305;65128;2314;63130;62;65427;65520;0;0
267;1521882868;2064;65158;65139;16327;65131;2335;63137;79;65449;65521;0;0
268;1521882868;1921;65199;65142;16288;65169;2332;63108;60;65439;65510;0;0
269;1521882868;2114;65155;65159;16384;65142;2337;63110;58;65429;65531;0;0
270;1521882868;1891;65158;65136;16263;65144;2334;63106;49;65442;65520;0;0
271;1521882868;2101;65180;65147;16315;65131;2313;63164;53;65435;65520;0;0
272;1521882868;1828;65157;65140;16314;65143;2275;63104;79;65420;65511;0;0
273;1521882868;2171;65150;65136;16301;65149;2288;63100;71;65457;65529;0;0
274;1521882869;1781;65180;65140;16287;65154;2294;63112;91;65449;65504;0;0
275;1521882869;1932;65166;65166;16303;65146;2308;63114;83;65451;1;0;0
276;1521882869;2056;65145;65157;16304;65145;2286;63090;66;65466;5;0;0
277;1521882869;1913;65196;65141;16287;65140;2290;63060;94;65425;65510;0;0
278;1521882869;2091;65126;65160;16350;65205;2306;63051;100;65443;2;0;0
279;1521882869;1905;65130;65165;16279;65194;2318;63127;69;65434;65503;0;0
280;1521882869;2131;65178;65197;16249;65169;2266;63130;81;65443;65502;0;0
281;1521882869;1860;65156;65139;16308;65157;2299;63098;79;65452;65533;0;0
282;1521882869;2187;65155;65164;16347;65162;2279;63046;99;65422;65525;0;0
283;1521882869;1817;65150;65130;16313;65155;2291;63082;94;65448;65502;0;0
284;1521882870;2190;65151;65136;16338;65203;2327;63044;71;65425;65500;0;0
285;1521882870;1916;65163;65147;16310;65137;2300;63076;98;65449;65505;0;0
286;1521882870;1909;65146;65118;16319;65141;2303;63077;99;65472;6;0;0
287;1521882870;2069;65160;65145;16295;65165;2293;63077;58;65435;65532;0;0
288;1521882870;1899;65146;65158;16305;65151;2272;63053;63;65436;65526;0;0
289;1521882870;2126;65141;65136;16319;65165;2288;63110;78;65454;65516;0;0
290;1521882870;1851;65168;65119;16352;65146;2324;63086;91;65416;65502;0;0
291;1521882870;2121;65160;65102;16325;65131;2302;63059;62;65452;65530;0;0
292;1521882870;1839;65133;65105;16352;65158;2280;63088;58;65461;3;0;0
293;1521882871;2201;65176;65145;16288;65146;2236;63156;43;65457;65526;0;0
294;1521882871;1891;65182;65133;16314;65169;2279;63073;64;65458;65498;0;0
295;1521882871;1920;65148;65195;16306;65155;2261;63111;67;65452;65511;0;0
296;1521882871;2072;65189;65144;16295;65141;2303;63083;52;65458;65508;0;0
297;1521882871;1900;65144;65155;16296;65122;2278;63104;96;65450;65498;0;0
298;1521882871;2086;64710;65064;16348;65150;2292;63126;136;65377;65526;0;0
299;1521882871;1849;65202;65090;16422;65109;2285;63113;88;65425;65497;0;0
300;1521882871;2145;65163;65178;16375;65129;2294;63130;59;65455;65514;0;0
301;1521882871;1844;65150;65128;16350;65140;2311;63135;84;65479;3;0;0
302;1521882871;2210;65064;65148;16295;65134;2322;63107;86;65461;65519;0;0
303;1521882872;1999;65261;65178;16406;65119;2294;63115;64;65484;65534;0;0
304;1521882872;1958;65128;65185;16294;65141;2266;63079;88;65430;65529;0;0
305;1521882872;2103;65176;65180;16296;65166;2310;63083;60;65453;13;0;0
306;1521882872;1931;65229;65149;16261;65150;2327;63119;59;65453;65498;0;0
307;1521882872;1650;65133;65197;16294;65140;2312;63085;106;65450;65504;0;0
308;1521882872;1874;65196;65165;16325;65135;2318;63055;86;65443;65517;0;0
309;1521882872;2116;65157;65209;16229;65169;2319;63052;96;65454;65503;0;0
310;1521882872;1797;65157;65165;16300;65154;2290;63061;65;65455;65511;0;0
311;1521882872;2168;65185;65170;16328;65143;2284;63076;88;65447;65509;0;0
312;1521882872;1801;65171;65144;16234;65123;2296;63059;117;65460;65528;0;0
313;1521882873;1935;65180;65145;16354;65118;2311;63101;95;65430;65533;0;0
314;1521882873;2047;65159;65174;16321;65108;2296;63098;106;65442;65518;0;0
315;1521882873;1920;65142;65156;16316;65141;2327;63067;99;65439;6;0;0
316;1521882873;2118;65220;65129;16292;65153;2278;63109;73;65440;65509;0;0
317;1521882873;1906;65132;65190;16294;65131;2283;63063;71;65471;65531;0;0
318;1521882873;2141;65221;65124;16301;65170;2311;63070;112;65463;65502;0;0
319;1521882873;1851;65168;65130;16334;65142;2272;63066;53;65442;7;0;0
320;1521882873;2156;65136;65162;16343;65140;2290;63051;77;65443;5;0;0
321;1521882873;1819;65223;65109;16340;65139;2348;63101;89;65464;2;0;0
322;1521882874;1953;65128;65178;16247;65155;2266;63069;68;65436;65514;0;0
323;1521882874;2058;65173;65117;16326;65152;2295;63079;101;65435;8;0;0
324;1521882874;1872;65180;65167;16358;65157;2271;63126;79;65462;65493;0;0
325;1521882874;2078;65171;65145;16293;65129;2270;63066;68;65428;65516;0;0
326;1521882874;1887;65194;65162;16323;65135;2282;63097;96;65454;65505;0;0
327;1521882874;2097;65176;65197;16303;65132;2299;63057;44;65434;65517;0;0
328;1521882874;1827;65147;65140;16309;65154;2285;63070;88;65456;65501;0;0
329;1521882874;2123;65190;65145;16295;65149;2296;63106;73;65428;65510;0;0
330;1521882874;1781;65157;65180;16298;65127;2277;63083;75;65433;65507;0;0
331;1521882874;1956;65172;65121;16296;65126;2292;63065;66;65439;65501;0;0
332;1521882875;1867;65128;65190;16295;65110;2292;63123;77;65439;65498;0;0
333;1521882875;1912;65200;65093;16356;65137;2285;63103;75;65457;65505;0;0
334;1521882875;2051;65132;65180;16304;65158;2309;63080;68;65438;65491;0;0
335;1521882875;1938;65192;65133;16282;65162;2282;63080;93;65440;65506;0;0
336;1521882875;2146;65159;65151;16325;65148;2271;63079;90;65449;2;0;0
337;1521882875;1854;65154;65161;16328;65147;2284;63099;63;65443;65478;0;0
338;1521882875;2153;65179;65143;16318;65160;2288;63101;85;65455;10;0;0
339;1521882875;1834;65148;65177;16352;65162;2268;63146;91;65444;65512;0;0
340;1521882875;2212;65169;65166;16304;65180;2299;63113;86;65444;65501;0;0
341;1521882876;1800;65183;65151;16310;65134;2266;63090;110;65422;65510;0;0
342;1521882876;1932;65146;65144;16337;65136;2242;63110;42;65450;65486;0;0
343;1521882876;2046;65209;65131;16307;65138;2261;63094;78;65435;65509;0;0
344;1521882876;1891;65107;65173;16315;65128;2284;63103;59;65440;65497;0;0
345;1521882876;2135;65173;65126;16287;65153;2271;63139;81;65455;65499;0;0
346;1521882876;1866;65137;65042;16438;65138;2282;63114;92;65453;65498;0;0
347;1521882876;2088;65187;65192;16229;65165;2269;63132;82;65433;65504;0;0
348;1521882876;1783;65158;65159;16319;65154;2293;63103;73;65424;65511;0;0
349;1521882876;2191;65228;65112;16272;65183;2299;63137;81;65457;65487;0;0
350;1521882876;1795;65145;65155;16306;65152;2289;63091;75;65438;65491;0;0
351;1521882877;1940;65142;65139;16323;65148;2277;63099;66;65455;65529;0;0
352;1521882877;2020;65177;65129;16382;65123;2281;63117;69;65438;65526;0;0
353;1521882877;1897;65148;65181;16318;65166;2317;63057;46;65444;65514;0;0
354;1521882877;2109;65201;65113;16327;65161;2314;63056;69;65463;65513;0;0
355;1521882877;1891;65152;65180;16296;65168;2317;63084;76;65443;65498;0;0
356;1521882877;2152;65175;65135;16343;65150;2316;63082;99;65443;3;0;0
357;1521882877;1808;65165;65151;16305;65128;2341;63112;77;65420;65500;0;0
358;1521882877;2173;65188;65174;16296;65150;2304;63107;100;65458;65485;0;0
359;1521882877;1836;65186;65159;16342;65145;2302;63079;78;65455;65499;0;0
360;1521882877;2213;65125;65173;16305;65140;2282;63118;72;65403;65516;0;0
361;1521882878;2048;65179;65118;16302;65131;2257;63125;91;65424;65508;0;0
362;1521882878;1893;65123;65170;16327;65142;2296;63040;70;65424;65483;0;0
363;1521882878;2050;65173;65114;16388;65159;2285;63093;65;65427;65516;0;0
364;1521882878;1900;65153;65149;16238;65103;2298;63075;55;65441;65501;0;0
365;1521882878;2116;65175;65183;16300;65159;2266;63102;58;65432;65523;0;0
366;1521882878;1901;65185;65134;16298;65164;2282;63131;57;65454;65515;0;0
367;1521882878;2183;65137;65181;16257;65155;2284;63108;105;65445;65508;0;0
368;1521882878;1826;65166;65175;16303;65169;2270;63085;64;65438;65525;0;0
369;1521882878;2203;65154;65175;16271;65150;2275;63102;85;65450;65510;0;0
370;1521882879;2036;65189;65134;16248;65141;2298;63087;110;65431;65535;0;0
371;1521882879;1916;65162;65142;16353;65159;2271;63130;95;65431;65504;0;0
372;1521882879;2087;65151;65158;16306;65180;2286;63113;77;65463;65517;0;0
373;1521882879;1888;65164;65100;16308;65133;2281;63132;77;65444;65524;0;0
374;1521882879;2086;65150;65173;16293;65171;2267;63097;91;65468;65510;0;0
375;1521882879;1906;65247;64905;16688;65123;2270;63092;81;65426;65502;0;0
376;1521882879;2153;65166;65170;16359;65136;2265;63070;150;65411;65514;0;0
377;1521882879;1834;65198;65377;16096;65138;2233;63028;86;65450;65500;0;0
378;1521882879;2218;65229;65150;16377;65128;2279;63048;75;65455;65486;0;0
379;1521882879;2051;64966;65137;16305;65149;2264;63079;81;65403;65533;0;0
380;1521882880;1936;65233;65132;16361;65142;2241;63059;52;65428;65491;0;0
381;1521882880;2047;65118;65192;16356;65153;2235;63076;82;65428;65529;0;0
382;1521882880;1908;65208;65097;16296;65146;2240;63066;76;65418;65523;0;0
383;1521882880;2109;65148;65181;16262;65134;2306;63077;65;65448;65505;0;0
384;1521882880;1896;65227;65214;16244;65125;2301;63108;74;65449;65516;0;0
385;1521882880;2160;65198;65197;16229;65163;2272;63085;97;65449;65493;0;0
386;1521882880;1838;65138;65200;16235;65141;2323;63107;71;65438;65524;0;0
387;1521882880;2185;65211;65085;16387;65128;2296;63088;66;65436;65504;0;0
388;1521882880;1812;65098;65214;16334;65139;2256;63074;79;65449;65500;0;0
389;1521882881;1946;65181;65090;16324;65163;2243;63063;52;65445;65507;0;0
390;1521882881;2065;65169;65149;16311;65191;2276;63052;87;65450;65519;0;0
391;1521882881;1915;64991;64814;16229;65174;2301;63049;33;65478;65484;0;0
392;1521882881;2088;65169;65080;16737;65179;2271;63044;73;65453;65505;0;0
393;1521882881;1896;65019;65110;16279;65147;2263;63045;61;65426;65477;0;0
394;1521882881;2109;65157;65139;16388;65155;2321;63072;57;65469;65519;0;0
395;1521882881;1857;65175;65097;16388;65143;2287;63104;70;65461;65529;0;0
396;1521882881;2163;65142;65128;16244;65210;2286;63076;104;65418;65512;0;0
397;1521882881;1779;65218;65169;16326;65181;2295;63028;30;65412;65495;0;0
398;1521882881;1950;64986;65200;16316;65180;2289;63044;91;65426;65516;0;0
399;1521882882;2047;65200;65156;16311;65190;2288;63077;82;65433;65520;0;0
400;1521882882;1915;65149;65147;16345;65189;2284;63095;41;65426;65509;0;0
401;1521882882;2041;65179;65099;16388;65203;2292;63070;66;65458;65517;0;0
402;1521882882;1909;65140;65165;16297;65161;2295;63072;50;65433;65513;0;0
403;1521882882;2142;65223;65146;16277;65167;2270;63099;41;65446;65509;0;0
404;1521882882;1861;65156;65218;16262;65124;2275;63069;81;65454;65496;0;0
405;1521882882;2171;65173;65145;16329;65144;2250;63058;87;65421;65520;0;0
406;1521882882;1780;65156;65127;16296;65148;2295;63057;92;65426;65502;0;0
407;1521882882;2160;65167;65160;16328;65152;2239;63065;81;65433;65493;0;0
408;1521882882;1909;65157;65111;16362;65132;2258;63048;76;65448;65506;0;0
409;1521882883;1917;65177;65180;16292;65206;2293;63053;66;65430;65523;0;0
410;1521882883;2038;65189;65135;16327;65185;2264;63059;54;65436;65523;0;0
411;1521882883;1905;65134;65184;16357;65182;2266;63062;75;65420;65510;0;0
412;1521882883;2134;65186;65128;16326;65199;2269;63023;99;65417;0;0;0
413;1521882883;1853;65161;65180;16270;65163;2271;63064;64;65420;65514;0;0
414;1521882883;2115;65176;65125;16385;65164;2273;63000;70;65433;65518;0;0
415;1521882883;1809;65140;65173;16301;65198;2237;63024;92;65445;65533;0;0
416;1521882883;2203;65165;65137;16301;65162;2265;63080;83;65454;65490;0;0
417;1521882883;2032;65170;65150;16352;65164;2237;63048;90;65455;65517;0;0
418;1521882884;1914;65171;65154;16305;65186;2264;63090;58;65445;65503;0;0
419;1521882884;2038;65179;65132;16295;65195;2265;63106;68;65433;65511;0;0
420;1521882884;1875;65180;65165;16303;65165;2234;63066;45;65422;65500;0;0
421;1521882884;2113;65166;65146;16295;65173;2261;63072;82;65425;65486;0;0
422;1521882884;1894;65179;65146;16326;65207;2252;63085;77;65438;65502;0;0
423;1521882884;2154;65180;65158;16296;65225;2280;63098;64;65419;65515;0;0
424;1521882884;1824;65166;65182;16293;65166;2259;63101;107;65401;65487;0;0
425;1521882884;2223;65177;65151;16293;65145;2248;63080;68;65447;65506;0;0
426;1521882884;2061;65186;65153;16308;65171;2226;63055;70;65452;65510;0;0
427;1521882884;1947;65144;65154;16315;65182;2269;63044;69;65432;65490;0;0
428;1521882885;2085;65160;65133;16328;65191;2245;63068;86;65447;65515;0;0
429;1521882885;1871;65184;65120;16347;65178;2242;63101;42;65449;65517;0;0
430;1521882885;2104;65155;65151;16361;65167;2248;63061;72;65440;65521;0;0
431;1521882885;1887;65171;65147;16270;65179;2233;63104;47;65430;65517;0;0
432;1521882885;2122;65165;65126;16327;65171;2274;63080;78;65435;65495;0;0
433;1521882885;1799;65201;65158;16358;65201;2295;63052;79;65429;65516;0;0
434;1521882885;2156;65172;65139;16300;65183;2296;63072;91;65446;65510;0;0
435;1521882885;1770;65108;65185;16334;65180;2234;63052;74;65476;65527;0;0
436;1521882885;1939;65215;65125;16347;65143;2268;63046;77;65462;65499;0;0
437;1521882886;2061;65118;65137;16304;65171;2314;63043;98;65436;65511;0;0
438;1521882886;1894;65189;65161;16296;65165;2274;63089;68;65457;65503;0;0
439;1521882886;2076;65156;65141;16303;65162;2238;63077;88;65419;65502;0;0
440;1521882886;1872;65173;65157;16325;65172;2267;63063;77;65446;65506;0;0
441;1521882886;2119;65190;65141;16288;65169;2258;63106;76;65460;65514;0;0
442;1521882886;1864;65157;65166;16328;65142;2229;63093;82;65439;65499;0;0
443;1521882886;2156;65185;65130;16324;65169;2226;63063;91;65421;65509;0;0
444;1521882886;1784;65164;65170;16290;65143;2268;63057;70;65436;65507;0;0
445;1521882886;1960;65196;65134;16229;65143;2245;63059;49;65424;65509;0;0
446;1521882886;2033;65120;65208;16299;65148;2254;63052;78;65450;65514;0;0
447;1521882887;1898;65205;65126;16293;65163;2267;63069;85;65467;65500;0;0
448;1521882887;2066;65131;65145;16258;65162;2249;63069;87;65463;65504;0;0
449;1521882887;1883;65157;65175;16345;65193;2247;63080;78;65441;65525;0;0
450;1521882887;2137;65183;65145;16297;65175;2249;63054;75;65459;65532;0;0
451;1521882887;1868;65165;65165;16247;65162;2223;63086;80;65424;65517;0;0
452;1521882887;2181;65205;65115;16358;65161;2238;63090;63;65449;65507;0;0
453;1521882887;1758;65159;65152;16313;65142;2263;63074;57;65443;65532;0;0
454;1521882887;1924;65166;65168;16287;65126;2284;63083;63;65458;65506;0;0
455;1521882887;2030;65182;65152;16323;65131;2299;63098;69;65460;65515;0;0
456;1521882887;1926;65144;65166;16297;65139;2266;63066;47;65425;65528;0;0
457;1521882888;2071;65195;65140;16236;65144;2248;63096;80;65439;65517;0;0
458;1521882888;1876;65207;65140;16260;65152;2254;63116;61;65451;65503;0;0
459;1521882888;2128;65110;65231;16219;65148;2244;63101;85;65453;65504;0;0
460;1521882888;1879;65167;65200;16293;65139;2265;63082;94;65450;65520;0;0
461;1521882888;2164;65239;65156;16295;65161;2258;63070;96;65424;65515;0;0
462;1521882888;1842;65133;65106;16397;65153;2266;63049;70;65424;0;0;0
463;1521882888;2186;65183;65099;16353;65149;2284;63076;86;65421;65483;0;0
464;1521882888;2071;65179;65180;16294;65160;2300;63064;76;65460;65511;0;0
465;1521882888;1934;65171;65142;16346;65138;2286;63072;101;65433;65504;0;0
466;1521882889;2091;65146;65146;16327;65151;2294;63080;62;65422;65531;0;0
467;1521882889;1885;65182;65125;16296;65155;2278;63081;64;65424;65513;0;0
468;1521882889;2091;65168;65164;16274;65153;2291;63069;76;65446;65528;0;0
469;1521882889;1895;65193;65167;16294;65160;2243;63102;75;65419;65490;0;0
470;1521882889;2149;65181;65130;16245;65118;2249;63058;77;65455;65513;0;0
471;1521882889;1796;65199;65122;16383;65153;2285;63072;54;65451;65510;0;0
472;1521882889;2195;65179;65161;16295;65136;2245;63109;87;65426;65514;0;0
473;1521882889;2035;65172;65133;16313;65108;2277;63076;61;65433;65488;0;0
474;1521882889;1925;65190;65166;16314;65122;2314;63065;72;65431;65509;0;0
475;1521882889;2061;65145;65144;16345;65147;2310;63079;57;65436;65486;0;0
476;1521882890;1861;65182;65145;16294;65161;2298;63027;94;65436;65499;0;0
477;1521882890;2066;65185;65164;16293;65144;2319;63038;54;65431;65509;0;0
478;1521882890;1875;65151;65149;16319;65127;2319;63059;55;65439;65519;0;0
479;1521882890;2171;65175;65154;16280;65139;2304;63036;50;65430;65518;0;0
480;1521882890;1788;65256;157;15661;65120;2306;63006;14;65498;9;0;0
481;1521882890;2119;65224;65263;15478;65146;2318;63068;34;65457;65532;0;0
482;1521882890;1855;65270;65209;16625;65139;2305;63080;55;65436;65504;0;0
483;1521882890;2004;65112;65111;16386;65176;2300;63066;103;65444;65508;0;0
484;1521882890;2065;65144;65140;16254;65155;2314;63048;98;65444;65511;0;0
485;1521882891;1956;65201;65173;16387;65158;2295;63054;102;65434;65517;0;0
486;1521882891;2133;65190;65129;16255;65144;2263;63108;76;65442;65524;0;0
487;1521882891;1846;65141;65155;16307;65163;2312;63137;82;65452;65505;0;0
488;1521882891;2171;65185;65131;16280;65104;2262;63068;89;65440;65506;0;0
489;1521882891;1846;65172;65187;16311;65144;2282;63067;105;65432;65503;0;0
490;1521882891;2179;65186;65150;16268;65154;2553;63112;57;65456;65513;0;0
491;1521882891;1753;65168;65149;16337;65155;2282;63069;81;65439;65521;0;0
492;1521882891;1913;65151;65118;16366;65146;2306;63099;64;65440;65515;0;0
493;1521882891;2102;65182;65099;16324;65145;2285;63100;49;65465;65497;0;0
494;1521882891;1885;65160;65066;16371;65148;2311;63089;92;65439;65489;0;0
495;1521882892;2119;65185;65203;16368;65174;2306;63071;80;65465;65497;0;0
496;1521882892;1898;65180;65170;16224;65180;2290;63070;83;65451;65492;0;0
497;1521882892;2144;65216;65169;16101;65159;2303;63074;57;65448;65499;0;0
498;1521882892;1758;65163;65201;16296;65142;2273;63111;88;65473;65527;0;0
499;1521882892;2242;65198;65162;16333;65134;2301;63071;61;65433;65506;0;0
500;1521882892;1832;65085;65060;16526;65131;2301;63083;38;65434;65497;0;0
501;1521882892;1919;65115;65265;16265;65152;2279;63137;118;65457;65532;0;0
502;1521882892;2091;65182;65166;16295;65140;2251;63116;83;65437;65501;0;0
503;1521882892;1918;65209;65175;16237;65163;2307;63130;112;65446;65516;0;0
504;1521882892;2084;65142;65147;16297;65150;2264;63066;65;65469;2;0;0
505;1521882893;1877;65184;65126;16356;65118;2312;63057;108;65447;65492;0;0
506;1521882893;2106;65192;65154;16264;65123;2296;63090;62;65446;65507;0;0
507;1521882893;1828;65156;65158;16467;65129;2301;63094;62;65424;65513;0;0
508;1521882893;2199;65199;65111;16312;65127;2264;63066;90;65455;65516;0;0
509;1521882893;1790;65153;65125;16341;65146;2268;63072;66;65455;65515;0;0
510;1521882893;1922;65198;65118;16375;65150;2270;63095;94;65437;65496;0;0
511;1521882893;2053;65160;65138;16223;65129;2292;63093;41;65456;65506;0;0
512;1521882893;1909;65176;65114;16257;65149;2263;63106;70;65455;65531;0;0
513;1521882893;2097;65203;65118;16295;65146;2276;63050;56;65437;65532;0;0
514;1521882894;1857;65151;65164;16273;65163;2266;63076;71;65451;65524;0;0
515;1521882894;2117;65206;65113;16294;65119;2274;63043;64;65443;65513;0;0
516;1521882894;1855;65155;65143;16274;65121;2299;63021;86;65437;65495;0;0
517;1521882894;2154;65157;65113;16307;65172;2290;63066;115;65452;65520;0;0
518;1521882894;1793;65203;65118;16348;65134;2278;63079;90;65441;65507;0;0
519;1521882894;1936;65136;65114;16308;65104;2286;63079;82;65448;65498;0;0
520;1521882894;2098;65199;65118;16340;65154;2303;63029;88;65441;65514;0;0
521;1521882894;1928;65143;65129;16296;65142;2329;63069;55;65461;65526;0;0
522;1521882894;2086;65191;65117;16244;65153;2292;63030;79;65440;65505;0;0
523;1521882894;1943;65176;65134;16352;65134;2290;63069;83;65447;65490;0;0
524;1521882895;2149;65158;65121;16319;65123;2270;63021;114;65444;65526;0;0
525;1521882895;1804;65187;65079;16259;65142;2279;63062;108;65454;65496;0;0
526;1521882895;2167;65130;65124;16336;65136;2262;63086;91;65448;65509;0;0
527;1521882895;1774;65169;65044;16468;65148;2289;63090;106;65435;65508;0;0
528;1521882895;1959;65125;65057;16200;65098;2271;63040;72;65460;65491;0;0
529;1521882895;2043;65155;65114;16444;65128;2306;63033;88;65420;65486;0;0
530;1521882895;1926;65142;65084;16234;65129;2272;63051;81;65453;65500;0;0
531;1521882895;2091;65185;65130;16311;65151;2286;63058;75;65450;65505;0;0
532;1521882895;1893;65175;65041;16371;65149;2272;63037;53;65427;65497;0;0
533;1521882896;2138;65146;65104;16407;65127;2281;63013;25;65421;65499;0;0
534;1521882896;1853;65173;65113;16356;65121;2238;63036;9;65399;65510;0;0
535;1521882896;2164;65194;65163;16283;65133;2252;63093;62;65456;65526;0;0
536;1521882896;1820;65168;65138;16308;65140;2266;63058;64;65436;65527;0;0
537;1521882896;2220;65154;65152;16202;65172;2238;63067;35;65449;65496;0;0
538;1521882896;2040;65170;65159;16292;65126;2267;63041;49;65434;65519;0;0
539;1521882896;1890;65171;65158;16320;65136;2298;63043;84;65447;65527;0;0
540;1521882896;2052;65183;65138;16292;65128;2275;63094;86;65456;65521;0;0
541;1521882896;1886;65147;65175;16233;65101;2278;63093;50;65454;65514;0;0
542;1521882896;2100;65188;65143;16276;65127;2240;63059;89;65426;65508;0;0
543;1521882897;1829;65170;65154;16266;65130;2257;63048;99;65459;65496;0;0
544;1521882897;2116;65202;65145;16252;65166;2281;63049;78;65432;65513;0;0
545;1521882897;1811;65157;65134;16324;65139;2290;63083;77;65471;65534;0;0
546;1521882897;2146;65170;65146;16322;65112;2260;63072;110;65434;65518;0;0
547;1521882897;2057;65176;65122;16306;65121;2261;63102;100;65452;6;0;0
548;1521882897;1913;65163;65130;16292;65116;2290;63089;77;65452;65524;0;0
549;1521882897;2087;65169;65142;16295;65118;2240;63085;72;65444;65521;0;0
550;1521882897;1928;65165;65155;16294;65130;2271;63088;93;65438;65514;0;0
551;1521882897;2103;65172;65129;16295;65137;2258;63084;60;65440;65534;0;0
552;1521882897;1866;65193;65137;16261;65151;2286;63093;90;65442;65525;0;0
553;1521882898;2163;65139;65117;16381;65141;2253;63108;70;65450;65509;0;0
554;1521882898;1798;65190;65130;16300;65123;2296;63039;63;65426;65517;0;0
555;1521882898;1957;65153;65127;16290;65105;2260;63064;77;65418;5;0;0
556;1521882898;2052;65200;65127;16322;65112;2259;63072;94;65461;65518;0;0
557;1521882898;1937;65164;65142;16258;65119;2261;63045;69;65471;65514;0;0
558;1521882898;2043;65170;65145;16341;65149;2259;63061;129;65453;65521;0;0
559;1521882898;1889;65174;65108;16301;65122;2263;63024;88;65425;65501;0;0
560;1521882898;2116;65165;65143;16278;65139;2259;63082;76;65459;65496;0;0
561;1521882898;1869;65191;65142;16280;65112;2260;63019;82;65443;65513;0;0
562;1521882899;2161;65164;65142;16323;65131;2268;63051;50;65437;65518;0;0
563;1521882899;1781;65181;65118;16313;65122;2287;63093;62;65474;65506;0;0
564;1521882899;2169;65158;65136;16318;65150;2263;63046;51;65431;65520;0;0
565;1521882899;1803;65156;65127;16299;65154;2268;63032;79;65444;65505;0;0
566;1521882899;1918;65148;65134;16289;65127;2271;63048;63;65460;65520;0;0
567;1521882899;2056;65198;65140;16288;65171;2272;63036;66;65424;65529;0;0
568;1521882899;1882;65148;65124;16328;65159;2253;63040;69;65453;65520;0;0
569;1521882899;2118;65168;65124;16297;65148;2298;63014;81;65425;65525;0;0
570;1521882899;1868;65178;65114;16356;65153;2284;63029;66;65452;65504;0;0
571;1521882899;2117;65154;65133;16313;65162;2307;63052;88;65450;65518;0;0
572;1521882900;1819;65173;65137;16334;65163;2274;63028;67;65409;65515;0;0
573;1521882900;2206;65160;65130;16279;65176;2271;63057;57;65436;65493;0;0
574;1521882900;1968;65168;65154;16295;65172;2292;63087;68;65426;65504;0;0
575;1521882900;1940;65186;65133;16306;65143;2293;63072;80;65433;65495;0;0
576;1521882900;2076;65146;65129;16299;65133;2286;63049;67;65443;65516;0;0
577;1521882900;1874;65184;65116;16323;65121;2295;63079;54;65434;65503;0;0
578;1521882900;2076;65144;65130;16309;65136;2274;63090;77;65430;65513;0;0
579;1521882900;1860;65161;65125;16292;65146;2253;63053;63;65427;65510;0;0
580;1521882900;2104;65187;65127;16302;65166;2269;63071;66;65473;65515;0;0
581;1521882901;1828;65159;65148;16299;65161;2278;63065;83;65448;65494;0;0
582;1521882901;2190;65183;65128;16292;65146;2261;63029;49;65434;65524;0;0
583;1521882901;2036;65159;65136;16304;65147;2291;63098;54;65458;65504;0;0
584;1521882901;1946;65186;65151;16316;65141;2283;63093;69;65440;65486;0;0
585;1521882901;2075;65170;65134;16299;65143;2264;63102;55;65432;65514;0;0
586;1521882901;1923;65176;65152;16307;65148;2276;63056;71;65463;65507;0;0
587;1521882901;2077;65166;65142;16311;65135;2275;63043;55;65430;65510;0;0
588;1521882901;1880;65160;65140;16321;65125;2307;63050;42;65437;65504;0;0
589;1521882901;2170;65172;65155;16229;65116;2311;63048;89;65441;65494;0;0
590;1521882901;1832;65173;65147;16299;65131;2301;63050;58;65442;65491;0;0
591;1521882902;2165;65158;65127;16294;65136;2334;63066;75;65438;65501;0;0
592;1521882902;1772;65153;65139;16292;65137;2281;63057;87;65448;65511;0;0
593;1521882902;1949;65176;65163;16337;65127;2280;63044;59;65432;65507;0;0
594;1521882902;2067;65157;65133;16298;65153;2274;63062;104;65429;65504;0;0
595;1521882902;1908;65157;65139;16320;65130;2294;63070;95;65442;65509;0;0
596;1521882902;2083;65202;65143;16296;65139;2290;63079;90;65430;65526;0;0
597;1521882902;1860;65230;65179;16275;65142;2250;63104;79;65460;65501;0;0
598;1521882902;2088;65182;65076;16469;65175;2268;63079;84;65439;65520;0;0
599;1521882902;1857;65192;65197;16252;65184;2295;63065;61;65449;65514;0;0
600;1521882902;2161;65183;65172;16190;65166;2264;63027;76;65457;10;0;0
