 counter ; timestamp ; amplitude ; accx ; accy ; accz ; magx ; magy ; magz ; gyrx ; gyry ; gyrz ; temp ; act state
1;1521878307;4081;65281;65110;16311;65098;2683;62748;59;65419;65529;0;0
2;1521878307;1819;65248;65116;16228;65052;2650;62743;83;65451;65505;0;0
3;1521878307;2088;65266;65138;16312;65117;2659;62737;65;65450;65505;0;0
4;1521878307;1795;65274;65104;16313;65098;2635;62784;81;65449;65497;0;0
5;1521878307;2146;65269;65105;16422;65093;2643;62754;47;65420;65503;0;0
6;1521878307;1697;65241;65215;16091;65113;2686;62782;66;65452;65511;0;0
7;1521878307;2355;65254;65173;16039;65106;2660;62789;95;65449;65523;0;0
8;1521878307;1787;65275;65180;16422;65116;2677;62758;99;65435;65506;0;0
9;1521878307;1996;65270;65095;16283;65105;2674;62764;89;65414;65523;0;0
10;1521878307;2123;65283;65101;16259;65079;2649;62748;89;65424;65493;0;0
11;1521878307;1853;65279;65109;16315;65092;2697;62797;88;65425;65530;0;0
12;1521878307;2153;65271;65125;16231;65081;2642;62793;66;65449;65494;0;0
13;1521878307;2022;65024;65137;16278;65072;2633;62739;66;65430;65516;0;0
14;1521878308;2195;65523;65107;16280;65126;2655;62738;77;65421;65519;0;0
15;1521878308;1493;65307;65105;16278;65065;2666;62752;73;65423;65284;0;0
16;1521878308;2107;65268;65150;16285;65086;2663;62793;65;65438;65504;0;0
17;1521878308;1947;65024;65119;16291;65070;2658;62772;78;65428;65514;0;0
18;1521878308;2073;65272;65125;16272;65088;2670;62752;96;65439;65527;0;0
19;1521878308;1899;65265;65121;16339;65109;2661;62784;72;65428;65512;0;0
20;1521878308;2193;65260;65116;16330;65111;2696;62773;72;65425;65506;0;0
21;1521878308;1817;65251;65118;16345;65147;2657;62785;67;65437;65494;0;0
22;1521878308;2200;65262;65129;16356;65123;2686;62789;61;65462;65498;0;0
23;1521878309;1631;65265;65114;16276;65111;2663;62787;71;65443;65498;0;0
24;1521878309;2310;65275;65124;16311;65143;2658;62778;73;65421;65515;0;0
25;1521878309;2013;65279;65117;16298;65173;2645;62785;58;65435;65513;0;0
26;1521878309;1905;65267;65105;16292;65117;2653;62764;79;65424;65491;0;0
27;1521878309;2123;65272;65125;16309;65106;2626;62771;97;65449;65515;0;0
28;1521878309;1881;65280;65117;16296;65107;2643;62768;87;65458;65501;0;0
29;1521878309;2185;65264;65113;16303;65139;2628;62798;73;65431;65514;0;0
30;1521878309;1726;65274;65118;16305;65079;2641;62762;70;65421;65508;0;0
31;1521878309;2243;65269;65111;16284;65111;2653;62798;74;65457;65508;0;0
32;1521878309;1779;65281;65111;16291;65114;2671;62775;79;65424;65506;0;0
33;1521878310;2286;65263;65110;16319;65068;2664;62834;60;65440;65515;0;0
34;1521878310;2076;65533;65118;16310;65087;2652;62776;88;65435;65505;0;0
35;1521878310;1861;65249;65104;16356;65092;2656;62755;53;65433;65485;0;0
36;1521878310;2092;65283;65118;16292;65075;2655;62801;53;65444;65499;0;0
37;1521878310;1891;65261;65129;16313;65086;2649;62821;72;65434;65505;0;0
38;1521878310;2169;65259;65113;16293;65129;2670;62783;97;65449;65495;0;0
39;1521878310;1852;65278;65107;16294;65082;2676;62759;68;65453;65506;0;0
40;1521878310;2127;65280;65105;16347;65093;2673;62789;74;65440;65501;0;0
41;1521878310;1777;65279;65110;16241;65103;2684;62736;64;65441;65505;0;0
42;1521878310;2198;65241;65144;16380;65115;2693;62774;93;65426;65483;0;0
43;1521878311;1795;65255;65105;16257;65132;2664;62741;73;65430;65521;0;0
44;1521878311;2303;65270;65124;16299;65105;2668;62748;61;65440;250;0;0
45;1521878311;2069;65275;65117;16304;65119;2630;62750;71;65444;65505;0;0
46;1521878311;1882;65268;65118;16297;65120;2645;62763;39;65447;65500;0;0
47;1521878311;2138;65272;65126;16334;65077;2638;62724;63;65437;65521;0;0
48;1521878311;1904;65277;65112;16266;65069;2649;62778;70;65430;65512;0;0
49;1521878311;2162;65267;65118;16306;65085;2654;62759;95;65431;65495;0;0
50;1521878311;1842;65282;65127;16297;65088;2666;62741;86;65459;65495;0;0
51;1521878311;2248;65262;65111;16291;65088;2643;62745;60;65445;65517;0;0
52;1521878312;1745;65287;65143;16284;65089;2653;62721;63;65426;65504;0;0
53;1521878312;2348;65252;65103;16300;65098;2622;62768;55;65459;65520;0;0
54;1521878312;1931;65277;65125;16310;65104;2683;62798;72;65409;65498;0;0
55;1521878312;1914;65260;65113;16307;65101;2650;62773;52;65444;65521;0;0
56;1521878312;2091;65268;65123;16280;65084;2626;62763;78;65433;65504;0;0
57;1521878312;1776;65287;65127;16296;65080;2666;62772;51;65428;65480;0;0
58;1521878312;2181;65252;65127;16335;65061;2661;62784;89;65455;65507;0;0
59;1521878312;1813;65279;65111;16282;65092;2647;62795;47;65438;65495;0;0
60;1521878312;2243;65275;65121;16295;65088;2623;62819;95;65434;65496;0;0
61;1521878312;1669;65255;65132;16318;65103;2654;62785;74;65448;65515;0;0
62;1521878313;2241;65277;65105;16298;65092;2654;62810;119;65428;65521;0;0
63;1521878313;1746;65256;65119;16286;65081;2660;62780;90;65431;65513;0;0
64;1521878313;1791;65272;65119;16273;65082;2651;62761;58;65434;65489;0;0
65;1521878313;2100;65268;65120;16321;65097;2652;62752;78;65436;4;0;0
66;1521878313;1907;65285;65131;16278;65080;2644;62783;71;65431;65509;0;0
67;1521878313;2071;65264;65117;16287;65096;2629;62733;82;65407;65505;0;0
68;1521878313;1880;65265;65139;16321;65115;2666;62754;70;65423;65521;0;0
69;1521878313;2107;65269;65126;16260;65082;2634;62781;61;65428;65503;0;0
70;1521878313;1816;65269;65129;16292;65109;2644;62764;82;65439;65485;0;0
71;1521878313;2236;65260;65130;16308;65108;2651;62789;67;65441;65506;0;0
72;1521878314;1714;65289;65140;16286;65133;2661;62760;75;65447;65517;0;0
73;1521878314;1920;65278;65145;16311;65138;2649;62772;72;65447;65505;0;0
74;1521878314;1936;65251;65121;16294;65110;2651;62768;53;65426;65516;0;0
75;1521878314;1915;65289;65116;16427;65098;2635;62775;61;65440;65485;0;0
76;1521878314;2101;65277;65036;16100;65089;2652;62782;68;65434;65516;0;0
77;1521878314;1931;65273;65326;16422;65074;2686;62778;21;65423;65525;0;0
78;1521878314;2191;65260;65248;16109;65095;2664;62777;98;65445;65515;0;0
79;1521878314;1831;65286;65147;16136;65117;2676;62768;52;65400;65522;0;0
80;1521878314;2248;65256;65106;16398;65084;2653;62781;75;65422;65499;0;0
81;1521878315;1744;65287;65070;16344;65132;2655;62785;41;65393;65510;0;0
82;1521878315;2140;65241;65075;16376;65099;2659;62785;77;65400;65503;0;0
83;1521878315;1705;65286;65066;16313;65101;2667;62803;76;65431;65523;0;0
84;1521878315;1916;65254;65108;16254;65127;2640;62760;72;65458;65518;0;0
85;1521878315;2118;65280;65152;16374;65112;2636;62751;89;65431;65522;0;0
86;1521878315;1844;65268;65114;16289;65127;2643;62817;44;65431;65474;0;0
87;1521878315;2195;65289;65109;16289;65133;2665;62759;72;65450;65501;0;0
88;1521878315;1829;65272;65126;16318;65118;2673;62758;65;65426;65506;0;0
89;1521878315;2219;65286;65121;16260;65133;2652;62770;49;65432;65502;0;0
90;1521878315;1780;65287;65167;16293;65122;2638;62806;87;65457;65520;0;0
91;1521878316;2220;65288;65019;16284;65107;2636;62803;39;65413;65511;0;0
92;1521878316;1683;65283;65086;16355;65121;2647;62812;64;65396;65498;0;0
93;1521878316;1888;65264;65151;16317;65094;2649;62804;87;65448;65523;0;0
94;1521878316;2081;65287;65159;16284;65131;2621;62777;65;65446;65519;0;0
95;1521878316;1827;65230;65127;16238;65115;2638;62828;82;65444;65503;0;0
96;1521878316;2123;65313;65103;16343;65102;2617;62793;101;65416;65510;0;0
97;1521878316;1900;65255;65103;16320;65108;2677;62784;35;65432;65531;0;0
98;1521878316;2132;65283;65124;16295;65075;2693;62775;70;65435;65514;0;0
99;1521878316;1810;65267;65145;16292;65088;2621;62802;91;65431;65508;0;0
100;1521878317;2250;65286;65123;16238;65101;2663;62827;84;65436;65505;0;0
101;1521878317;1582;65266;65116;16356;65089;2664;62797;80;65456;65528;0;0
102;1521878317;1905;65264;65089;16295;65078;2635;62766;93;65440;65510;0;0
103;1521878317;2066;65274;65098;16263;65109;2626;62803;84;65444;65499;0;0
104;1521878317;1895;65260;65112;16279;65119;2659;62792;75;65418;65503;0;0
105;1521878317;2129;65293;65129;16239;65087;2647;62747;59;65437;65506;0;0
106;1521878317;1844;65269;65141;16307;65119;2648;62773;61;65413;65510;0;0
107;1521878317;2188;65268;65124;16252;65061;2646;62742;63;65433;65510;0;0
108;1521878317;1662;65283;65149;16282;65076;2647;62797;77;65427;65515;0;0
109;1521878317;2279;65277;65121;16339;65098;2629;62761;118;65445;1;0;0
110;1521878318;1689;65275;65073;16297;65124;2625;62751;21;65444;65508;0;0
111;1521878318;2112;65246;65091;16258;65126;2615;62752;70;65432;65521;0;0
112;1521878318;1800;65258;65114;16296;65114;2661;62770;74;65438;0;0;0
113;1521878318;1928;65275;65125;16331;65101;2648;62777;128;65445;65501;0;0
114;1521878318;2092;65246;65138;16287;65105;2655;62755;49;65445;65512;0;0
115;1521878318;2046;65279;65118;16281;65104;2655;62807;78;65427;65522;0;0
116;1521878318;2179;65119;65243;16840;65103;2667;62828;65485;65427;65522;0;0
117;1521878318;1819;65185;65483;16360;65080;2646;62753;65521;65395;65528;0;0
118;1521878318;2194;65137;65382;16023;65113;2653;62822;79;65453;65511;0;0
119;1521878318;1809;65296;65130;15882;65081;2638;62760;87;65448;65514;0;0
120;1521878319;2261;65243;65192;16727;65079;2604;62852;79;65435;65498;0;0
121;1521878319;1759;65303;65034;16176;65090;2644;62784;69;65440;65509;0;0
122;1521878319;1932;65264;65080;16203;65101;2638;62832;57;65422;65502;0;0
123;1521878319;2134;65250;65202;16388;65094;2663;62804;90;65447;65524;0;0
124;1521878319;1861;65287;65102;16138;65081;2662;62845;74;65449;65506;0;0
125;1521878319;2028;65258;65153;16388;65109;2634;62805;87;65420;65513;0;0
126;1521878319;1829;65141;65213;16651;65121;2655;62795;65480;65471;7;0;0
127;1521878319;2127;65155;65460;16558;65112;2624;62787;65519;65408;65494;0;0
128;1521878319;1847;65242;64617;14932;65108;2628;62806;129;65352;65508;0;0
129;1521878320;2267;65226;65394;17646;65146;2611;62848;96;65398;65513;0;0
130;1521878320;1631;65266;64651;16437;65124;2643;62791;139;65234;65521;0;0
131;1521878320;2293;65180;65518;18756;65104;2657;62769;65519;65377;65531;0;0
132;1521878320;1982;65224;65076;15034;65099;2662;62777;65523;65502;65525;0;0
133;1521878320;1854;65167;43;17045;65080;2658;62803;65510;65394;65499;0;0
134;1521878320;2110;65160;65418;14948;65087;2645;62807;65511;95;6;0;0
135;1521878320;1766;65258;65533;15780;65108;2619;62786;65426;65401;65508;0;0
136;1521878320;2201;65159;49;16724;65096;2626;62808;65;65442;65513;0;0
137;1521878320;1725;65277;65125;15074;65130;2641;62789;68;65420;65524;0;0
138;1521878320;2181;65214;65454;16933;65086;2613;62782;101;65447;65499;0;0
139;1521878321;1765;65329;65033;15966;65093;2641;62802;95;65477;65535;0;0
140;1521878321;2322;65229;65069;16297;65058;2646;62762;67;65401;65494;0;0
141;1521878321;2099;65235;65180;16582;65061;2650;62832;60;65438;65507;0;0
142;1521878321;1806;65267;65036;15831;65100;2646;62821;83;65445;65497;0;0
143;1521878321;2089;65222;65239;16642;65087;2654;62798;56;65427;65486;0;0
144;1521878321;1852;65272;65144;16170;65058;2658;62781;47;65468;65501;0;0
145;1521878321;2208;65236;65062;16111;65091;2656;62802;62;65428;65513;0;0
146;1521878321;1841;65285;65153;16601;65090;2670;62799;70;65429;65518;0;0
147;1521878321;2223;65241;65031;16122;65086;2649;62800;71;65439;65488;0;0
148;1521878322;1763;65286;65125;16401;65108;2659;62785;91;65410;65513;0;0
149;1521878322;2294;65261;65133;16306;65101;2670;62781;74;65450;65494;0;0
150;1521878322;1805;65259;65108;16164;65084;2660;62824;108;65438;65518;0;0
151;1521878322;1900;65280;65169;16414;65078;2676;62776;75;65453;65506;0;0
152;1521878322;2028;65357;65296;18152;65075;2637;62819;39;65518;65494;0;0
153;1521878322;1911;65324;64822;15482;65090;2661;62808;32;65419;65497;0;0
154;1521878322;2125;64971;65250;18801;65080;2667;62803;109;65333;65518;0;0
155;1521878322;1806;65172;64828;17777;65104;2662;62746;165;65376;65488;0;0
156;1521878322;1860;65029;65067;17436;65106;2672;62815;26;65416;65503;0;0
157;1521878322;1807;65244;2;14915;65069;2642;62810;55;65522;65522;0;0
158;1521878323;2227;65370;65166;16122;65098;2647;62747;188;65452;65531;0;0
159;1521878323;1628;65309;65051;16934;65112;2670;62787;60;65424;65509;0;0
160;1521878323;2322;65336;64914;16165;65093;2615;62772;42;65453;65524;0;0
161;1521878323;2073;65313;64985;16167;65100;2635;62800;95;65407;65507;0;0
162;1521878323;1898;65308;65172;16553;65092;2650;62825;93;65451;65508;0;0
163;1521878323;2145;65307;65125;16167;65120;2631;62805;101;65441;65525;0;0
164;1521878323;1750;65277;65176;16384;65114;2641;62771;51;65430;65529;0;0
165;1521878323;2190;65291;65109;16248;65095;2643;62793;67;65469;65498;0;0
166;1521878323;1745;65280;65097;16293;65064;2640;62783;62;65435;65489;0;0
167;1521878323;2230;65272;65140;16430;65098;2644;62798;56;65445;65491;0;0
168;1521878324;1788;65264;65137;16193;65073;2646;62808;90;65434;65514;0;0
169;1521878324;2268;65257;65157;16269;65101;2667;62759;74;65441;65518;0;0
170;1521878324;2131;65248;65140;16297;65079;2629;62778;80;65414;65486;0;0
171;1521878324;1805;65278;65115;16261;65077;2665;62786;81;65451;65525;0;0
172;1521878324;2086;65262;65106;16351;65087;2630;62769;60;65425;65520;0;0
173;1521878324;1897;65282;65127;16228;65101;2676;62799;68;65429;65512;0;0
174;1521878324;2195;65268;65129;16294;65087;2651;62788;65;65426;65516;0;0
175;1521878324;1846;65272;65139;16322;65075;2636;62792;69;65426;65485;0;0
176;1521878324;2170;65283;65127;16292;65111;2662;62825;73;65447;1;0;0
177;1521878325;1765;65231;65141;16303;65087;2613;62794;63;65426;65511;0;0
178;1521878325;2325;65293;65126;16302;65118;2598;62792;77;65422;65491;0;0
179;1521878325;1758;65252;65139;16354;65113;2616;62798;45;65436;65495;0;0
180;1521878325;1965;65283;65120;16263;65123;2672;62811;84;65425;65505;0;0
181;1521878325;2064;65290;65123;16292;65135;2659;62784;34;65435;65518;0;0
182;1521878325;1871;65257;65148;16324;65113;2668;62813;86;65457;65498;0;0
183;1521878325;2141;65268;65221;16134;65071;2671;62750;32;65426;65502;0;0
184;1521878325;1899;65263;65206;16064;65102;2652;62789;64;65424;65482;0;0
185;1521878325;2227;65265;65158;16351;65118;2637;62796;79;65431;65507;0;0
186;1521878325;1808;65286;65079;16306;65073;2656;62823;48;65442;65488;0;0
187;1521878326;2194;65278;65120;16382;65051;2633;62783;57;65446;65502;0;0
188;1521878326;1725;65281;65127;16259;65090;2630;62745;107;65437;65526;0;0
189;1521878326;2361;65296;65164;16256;65053;2639;62783;96;65429;65516;0;0
190;1521878326;2112;65264;65164;16289;65082;2628;62719;85;65461;65507;0;0
191;1521878326;4082;64019;65372;16105;65108;2659;62745;65427;64791;65500;0;0
192;1521878326;2126;65276;65127;16342;65111;2647;62739;92;65434;65526;0;0
193;1521878326;1268;64935;65145;16356;65088;2661;62731;47;65229;65510;0;0
194;1521878326;2838;65297;65108;16295;65065;2632;62748;63;65428;65517;0;0
195;1521878326;1780;65264;65134;16292;65055;2657;62767;59;65443;65498;0;0
196;1521878327;1785;65308;65086;16389;65106;2666;62783;109;104;65493;0;0
197;1521878327;1749;65276;65121;16264;65067;2655;62797;76;65426;65519;0;0
198;1521878327;2231;65275;65146;16378;65080;2657;62818;64;65462;65517;0;0
199;1521878327;2386;64737;65093;16490;65093;2671;62822;65472;64326;65518;0;0
200;1521878327;1824;65251;65163;16312;65076;2657;62812;77;65433;65509;0;0
201;1521878327;2050;65285;65130;16280;65110;2630;62793;89;65424;65525;0;0
202;1521878327;1676;65267;65111;16314;65096;2645;62801;57;65304;65518;0;0
203;1521878327;2125;65272;65110;16355;65119;2670;62809;96;7;65507;0;0
204;1521878327;1799;65275;65086;16313;65064;2692;62732;120;65318;65493;0;0
205;1521878327;2327;65197;65161;16318;65111;2643;62781;78;65521;65512;0;0
206;1521878328;1512;65201;65134;16297;65054;2642;62780;32;65305;65505;0;0
207;1521878328;2295;65257;65126;16286;65086;2657;62818;119;65475;65497;0;0
208;1521878328;1606;65262;65118;16333;65058;2665;62773;91;65468;65511;0;0
209;1521878328;1940;65261;65150;16273;65131;2667;62805;60;65426;65516;0;0
210;1521878328;2169;65280;65159;16287;65109;2701;62772;103;65435;65495;0;0
211;1521878328;1636;65246;65106;16386;65116;2659;62757;111;65012;65499;0;0
212;1521878328;2178;65306;65129;16237;65109;2661;62781;94;65423;65513;0;0
213;1521878328;1938;65322;65098;16344;65073;2690;62759;96;65423;65520;0;0
214;1521878328;2130;65296;65094;16356;65107;2664;62770;79;65434;65522;0;0
215;1521878328;1808;65220;65111;16382;65109;2642;62769;86;60;65502;0;0
216;1521878329;2141;64824;65146;16308;65110;2659;62760;73;377;64968;0;0
217;1521878329;1720;595;64913;16295;65091;2611;62784;89;65226;64999;0;0
218;1521878329;2274;65343;65116;16322;65071;2637;62788;82;65066;65530;0;0
219;1521878329;2111;65293;65109;16300;65093;2621;62804;75;65411;65491;0;0
220;1521878329;1877;65241;65133;16292;65089;2632;62770;57;65451;65501;0;0
221;1521878329;2119;65329;65119;16300;65031;2679;62778;88;65357;65509;0;0
222;1521878329;1835;65243;65114;16303;65112;2645;62794;73;65450;65504;0;0
223;1521878329;1997;65269;65133;16289;65067;2637;62775;68;26;7;0;0
224;1521878329;1815;65214;65124;16293;65073;2650;62809;78;65421;65507;0;0
225;1521878330;2823;65198;65124;16316;65068;2660;62746;71;39;65529;0;0
226;1521878330;1795;65266;65148;16344;65068;2657;62793;73;65406;65516;0;0
227;1521878330;2159;65279;65123;16305;65072;2657;62794;85;65463;65511;0;0
228;1521878330;1708;65236;65097;16347;65079;2667;62782;76;65489;65530;0;0
229;1521878330;1837;65269;65093;16325;65133;2640;62796;81;65414;65495;0;0
230;1521878330;2058;65283;65143;16304;65100;2681;62785;66;65416;65525;0;0
231;1521878330;1596;65137;65118;16356;65071;2661;62829;68;65147;65509;0;0
232;1521878330;2033;65282;65111;16315;65097;2680;62779;72;65434;65519;0;0
233;1521878330;1358;65337;65108;16309;65080;2669;62818;69;65413;65485;0;0
234;1521878330;2036;65259;65122;16312;65098;2681;62812;57;65362;65503;0;0
235;1521878331;1837;65256;65124;16316;65100;2655;62778;79;65453;65526;0;0
236;1521878331;2212;65347;65102;16302;65036;2684;62824;86;65481;65511;0;0
237;1521878331;1737;65240;65142;16282;65053;2633;62832;109;65427;65506;0;0
238;1521878331;1772;65116;65129;16305;65063;2641;62816;78;65440;65499;0;0
239;1521878331;2025;65171;65123;16298;65080;2676;62770;74;9;65501;0;0
240;1521878331;1868;65292;65119;16290;65071;2655;62784;55;65438;65531;0;0
241;1521878331;2118;65218;65115;16320;65052;2653;62781;68;65457;65503;0;0
242;1521878331;1944;65318;65112;16254;65068;2634;62799;69;65431;65522;0;0
243;1521878331;2192;65273;65102;16374;65059;2629;62854;89;408;65528;0;0
244;1521878332;1855;320;65083;16177;65073;2633;62773;71;65385;63465;0;0
245;1521878332;2253;65190;65083;16262;65064;2682;62821;93;65412;65499;0;0
246;1521878332;1753;65310;65107;16318;65048;2663;62832;56;65444;65495;0;0
247;1521878332;2315;65275;65108;16321;65069;2643;62858;65;65448;65533;0;0
248;1521878332;1671;65240;65108;16293;65068;2629;62853;74;65445;65487;0;0
249;1521878332;1924;65292;65123;16300;65072;2653;62857;62;65424;65509;0;0
250;1521878332;2080;65212;65127;16254;65061;2682;62837;76;65427;65525;0;0
251;1521878332;1880;65274;65112;16322;65080;2657;62840;89;65434;65507;0;0
252;1521878332;2212;65242;65105;16312;65106;2651;62811;85;65420;65495;0;0
253;1521878332;1818;65265;65112;16280;65038;2678;62837;86;65434;65507;0;0
254;1521878333;2165;65273;65109;16345;65062;2636;62888;56;65445;65495;0;0
255;1521878333;1811;65253;65116;16264;65084;2635;62864;70;65432;65507;0;0
256;1521878333;2155;65281;65100;16352;65112;2641;62820;86;65451;65488;0;0
257;1521878333;1773;65239;65108;16334;65067;2645;62810;93;65440;65493;0;0
258;1521878333;1860;65278;65097;16288;65087;2641;62808;97;65425;65515;0;0
259;1521878333;2076;65259;65116;16351;65094;2659;62791;66;65403;65525;0;0
260;1521878333;1900;65240;65101;16293;65065;2649;62832;52;65425;65513;0;0
261;1521878333;2067;65272;65114;16350;65061;2642;62838;44;65446;65516;0;0
262;1521878333;1895;65246;65100;16296;65081;2668;62832;88;65418;65498;0;0
263;1521878333;2031;65278;65144;16287;65114;2660;62818;55;65447;65481;0;0
264;1521878334;1819;65245;65123;16293;65108;2655;62818;70;65436;65503;0;0
265;1521878334;2232;65286;65119;16302;65098;2657;62855;93;65457;65516;0;0
266;1521878334;1638;65278;65140;16300;65061;2638;62853;76;65445;65529;0;0
267;1521878334;2055;65254;65102;16302;65115;2646;62825;78;65417;65487;0;0
268;1521878334;1654;65281;65113;16299;65083;2663;62832;51;65438;65531;0;0
269;1521878334;1945;65276;65127;16267;65066;2676;62804;64;65434;65494;0;0
270;1521878334;2085;65259;65135;16230;65068;2676;62843;73;65426;65512;0;0
271;1521878334;1898;65265;65135;16359;65046;2646;62836;85;65427;65517;0;0
272;1521878334;2160;65257;65113;16330;65058;2645;62843;72;65434;65508;0;0
273;1521878335;1797;65258;65100;16264;65072;2663;62791;54;65435;65491;0;0
274;1521878335;2135;65296;65127;16300;65035;2672;62806;113;65415;65518;0;0
275;1521878335;1758;65255;65132;16312;65058;2668;62814;76;65442;65501;0;0
276;1521878335;2304;65282;65149;16292;65094;2637;62815;57;65448;65510;0;0
277;1521878335;1721;65253;65135;16343;65085;2639;62832;72;65466;65514;0;0
278;1521878335;1842;65275;65109;16271;65058;2645;62803;86;65434;65502;0;0
279;1521878335;2087;65266;65135;16326;65033;2661;62830;49;65448;65519;0;0
280;1521878335;1824;65265;65131;16306;65066;2658;62830;40;65420;65515;0;0
281;1521878335;2152;65284;65113;16260;65043;2661;62829;78;65441;65529;0;0
282;1521878335;1781;65245;65137;16315;65053;2681;62835;66;65436;65503;0;0
283;1521878336;2147;65278;65110;16303;65030;2676;62826;92;65443;65502;0;0
284;1521878336;1791;65253;65127;16294;65070;2633;62845;80;65440;65520;0;0
285;1521878336;2125;65247;65122;16294;65078;2662;62827;80;65440;65479;0;0
286;1521878336;1755;65251;65132;16294;65069;2675;62797;91;65438;65497;0;0
287;1521878336;1754;65278;65135;16314;65066;2648;62868;92;65427;65491;0;0
288;1521878336;1702;65252;65113;16249;65067;2661;62800;73;65431;65516;0;0
289;1521878336;1895;65268;65123;16320;65071;2654;62815;68;65444;65509;0;0
290;1521878336;2088;65253;65123;16320;65080;2671;62798;51;65443;65506;0;0
291;1521878336;1903;65256;65123;16279;65074;2633;62789;109;65427;65484;0;0
292;1521878337;2032;65268;65111;16300;65044;2687;62814;95;65429;6;0;0
293;1521878337;1816;65245;65125;16317;65064;2669;62785;77;65468;65522;0;0
294;1521878337;2244;65264;65110;16256;65094;2705;62793;86;65449;65494;0;0
295;1521878337;1817;65249;65121;16313;65076;2691;62813;77;65442;65527;0;0
296;1521878337;2542;65253;65132;16245;65062;2677;62856;68;65447;65521;0;0
297;1521878337;1730;65277;65131;16314;65068;2685;62823;77;65444;65524;0;0
298;1521878337;1892;65260;65118;16249;65068;2673;62792;67;65438;65515;0;0
299;1521878337;2090;65266;65122;16260;65085;2697;62820;53;65440;65526;0;0
300;1521878337;1889;65237;65137;16293;65042;2650;62804;82;65448;65476;0;0
301;1521878337;2146;65274;65112;16255;65069;2679;62828;92;65446;65527;0;0
302;1521878338;1863;65260;65136;16300;65059;2663;62856;73;65443;9;0;0
303;1521878338;2210;65251;65131;16297;65082;2697;62812;67;65419;65500;0;0
304;1521878338;1764;65270;65137;16292;65054;2656;62796;95;65426;65528;0;0
305;1521878338;2292;65271;65135;16284;65089;2669;62826;84;65430;65488;0;0
306;1521878338;1692;65266;65130;16292;65067;2693;62829;81;65455;65508;0;0
307;1521878338;1864;65269;65132;16297;65076;2672;62825;71;65450;65505;0;0
308;1521878338;2124;65273;65128;16296;65065;2667;62823;86;65431;65507;0;0
309;1521878338;1818;65256;65128;16275;65102;2678;62817;76;65425;65502;0;0
310;1521878338;2186;65267;65139;16297;65076;2674;62848;74;65418;65489;0;0
311;1521878338;1792;65251;65131;16305;65079;2673;62864;71;65429;65519;0;0
312;1521878339;2245;65271;65171;16294;65042;2683;62848;88;65453;65511;0;0
313;1521878339;1715;65260;65147;16378;65062;2696;62847;103;65433;65524;0;0
314;1521878339;2161;65236;65055;16333;65091;2718;62833;58;65439;65488;0;0
315;1521878339;2084;65272;65082;16168;65063;2684;62859;71;65442;65520;0;0
316;1521878339;1798;65247;65175;16294;65062;2675;62825;79;65449;65524;0;0
317;1521878339;2095;65262;65173;16320;65060;2673;62879;61;65432;65497;0;0
318;1521878339;1859;65259;65108;16293;65057;2671;62850;91;65433;65506;0;0
319;1521878339;2087;65258;65059;16299;65073;2706;62856;81;65440;4;0;0
320;1521878339;1868;65275;65097;16327;65044;2691;62821;96;65439;65513;0;0
321;1521878340;2130;65241;65141;16293;65059;2719;62792;64;65436;65499;0;0
322;1521878340;1784;65251;65127;16278;65043;2700;62828;77;65447;65500;0;0
323;1521878340;2236;65230;65119;16287;65047;2702;62865;95;65439;65510;0;0
324;1521878340;1746;65259;65095;16335;65039;2701;62831;78;65438;65504;0;0
325;1521878340;1942;65252;65113;16298;65063;2699;62847;51;65410;65506;0;0
326;1521878340;2024;65275;65120;16295;65050;2666;62826;68;65411;65510;0;0
327;1521878340;1878;65250;65117;16328;65041;2691;62841;91;65443;65519;0;0
328;1521878340;2147;65260;65131;16284;65046;2712;62808;79;65439;65528;0;0
329;1521878340;1910;65261;65127;16300;65066;2710;62839;67;65447;65499;0;0
330;1521878340;2142;65263;65125;16310;65062;2704;62816;89;65449;65500;0;0
331;1521878341;1789;65265;65114;16324;65036;2713;62816;100;65429;65500;0;0
332;1521878341;2248;65250;65116;16295;65045;2713;62808;72;65417;65489;0;0
333;1521878341;1694;65253;65122;16292;65124;2692;62802;74;65441;65517;0;0
334;1521878341;1961;65245;65126;16316;65068;2667;62799;98;65427;65477;0;0
335;1521878341;2065;65274;65142;16286;65045;2691;62780;96;65428;65518;0;0
336;1521878341;1912;65260;65125;16316;65077;2692;62818;66;65428;65523;0;0
337;1521878341;2107;65259;65111;16296;65067;2684;62741;66;65443;65515;0;0
338;1521878341;1747;65256;65114;16320;65086;2703;62814;70;65442;65509;0;0
339;1521878341;2235;65250;65125;16301;65078;2660;62790;79;65434;65290;0;0
340;1521878342;1767;65264;65122;16295;65096;2659;62802;75;65427;65518;0;0
341;1521878342;2253;65249;65135;16300;65072;2648;62804;73;65449;65493;0;0
342;1521878342;1744;65255;65135;16302;65085;2662;62785;74;65463;65511;0;0
343;1521878342;2257;65258;65121;16299;65083;2693;62799;90;65440;65515;0;0
344;1521878342;1727;65267;65118;16307;65077;2693;62800;92;65443;65484;0;0
345;1521878342;1782;65256;65126;16294;65053;2683;62817;95;65431;65524;0;0
346;1521878342;2124;65266;65137;16290;65074;2670;62829;58;65433;65520;0;0
347;1521878342;1964;65257;65116;16295;65072;2679;62831;72;65422;65518;0;0
348;1521878342;2176;65262;65133;16301;65070;2647;62833;68;65446;65484;0;0
349;1521878342;1863;65269;65135;16293;65079;2643;62805;70;65413;65507;0;0
350;1521878343;2148;65281;65120;16285;65087;2686;62801;80;65427;65506;0;0
351;1521878343;1413;65260;65121;16310;65048;2647;62823;112;65422;65527;0;0
352;1521878343;2251;65256;65126;16325;65044;2688;62782;78;65436;65489;0;0
353;1521878343;1752;65264;65131;16287;65058;2669;62782;55;65418;65505;0;0
354;1521878343;1929;65267;65129;16329;65061;2653;62828;56;65419;65509;0;0
355;1521878343;2113;65236;65116;16321;65077;2627;62803;69;65446;65493;0;0
356;1521878343;1894;65257;65133;16289;65052;2703;62819;60;65454;65510;0;0
357;1521878343;2035;65251;65126;16300;65051;2652;62833;77;65456;65485;0;0
358;1521878343;1882;65264;65130;16296;65072;2659;62814;89;65438;65514;0;0
359;1521878343;2193;65262;65113;16328;65102;2625;62854;65;65425;65514;0;0
360;1521878344;1829;65266;65114;16315;65097;2661;62851;88;65432;65495;0;0
361;1521878344;2248;65266;65113;16300;65033;2692;62859;65;65426;65520;0;0
362;1521878344;1647;65277;65122;16316;65055;2655;62873;67;65437;65531;0;0
363;1521878344;1943;65256;65103;16305;65038;2637;62879;78;65421;65509;0;0
364;1521878344;1608;65266;65125;16306;65033;2664;62845;98;65432;65527;0;0
365;1521878344;1916;65257;65122;16289;65068;2702;62846;83;65430;65512;0;0
366;1521878344;2094;65271;65127;16281;65054;2673;62813;107;65440;65512;0;0
367;1521878344;1820;65260;65131;16311;65060;2696;62843;80;65421;65500;0;0
368;1521878344;2213;65246;65126;16302;65079;2670;62872;87;65417;65522;0;0
369;1521878345;1700;65283;65107;16294;65034;2697;62878;81;65446;65498;0;0
370;1521878345;2178;65252;65119;16333;65062;2685;62855;80;65439;65500;0;0
371;1521878345;1782;65268;65116;16315;65048;2689;62860;62;65423;65508;0;0
372;1521878345;2304;65271;65117;16357;65071;2683;62888;65;65421;65506;0;0
373;1521878345;1741;65270;65124;16290;65103;2681;62863;66;65428;65506;0;0
374;1521878345;1888;65272;65118;16297;65102;2692;62837;68;65438;65528;0;0
375;1521878345;2112;65253;65114;16338;65058;2700;62828;71;65421;65501;0;0
376;1521878345;1888;65260;65104;16289;65105;2700;62850;88;65425;65517;0;0
377;1521878345;2174;65258;65119;16315;65077;2678;62816;53;65423;65510;0;0
378;1521878345;1864;65263;65123;16295;65062;2662;62870;78;65441;65514;0;0
379;1521878346;2192;65259;65121;16304;65066;2667;62877;74;65445;65469;0;0
380;1521878346;1791;65280;65143;16336;65057;2681;62861;67;65454;65504;0;0
381;1521878346;2226;65255;65122;16297;65003;2657;62844;54;65442;65512;0;0
382;1521878346;1751;65254;65142;16295;65042;2686;62891;87;65426;65495;0;0
383;1521878346;1907;65239;65118;16319;65055;2682;62819;74;65427;65476;0;0
384;1521878346;1900;65264;65123;16304;65049;2674;62823;65;65414;65517;0;0
385;1521878346;1892;65247;65119;16300;65056;2660;62813;101;65452;65488;0;0
386;1521878346;1991;65259;65112;16301;65064;2659;62858;60;65453;65509;0;0
387;1521878346;1889;65273;65121;16295;65032;2644;62826;48;65416;65498;0;0
388;1521878347;2077;65229;65128;16327;65050;2646;62831;55;65417;65508;0;0
389;1521878347;1801;65253;65111;16292;65039;2625;62816;60;65452;65510;0;0
390;1521878347;2273;65258;65124;16301;65043;2649;62853;108;65429;65511;0;0
391;1521878347;1800;65240;65113;16281;65041;2652;62908;77;65443;65492;0;0
392;1521878347;2346;65261;65129;16299;65076;2661;62846;72;65414;65512;0;0
393;1521878347;1726;65271;65126;16301;65062;2625;62855;64;65414;65489;0;0
394;1521878347;1929;65243;65120;16289;65070;2658;62862;87;65422;65486;0;0
395;1521878347;2142;65267;65118;16298;65078;2676;62869;94;65456;65525;0;0
396;1521878347;1905;65267;65118;16293;65039;2629;62832;81;65432;65474;0;0
397;1521878347;2159;65268;65131;16283;65071;2691;62875;96;65450;65526;0;0
398;1521878348;1854;65253;65117;16318;65079;2642;62839;86;65441;65519;0;0
399;1521878348;2198;65248;65109;16274;65061;2655;62809;81;65430;65506;0;0
400;1521878348;1714;65268;65149;16292;65037;2656;62854;73;65436;65496;0;0
401;1521878348;2330;65237;65112;16341;65059;2672;62855;79;65441;65496;0;0
402;1521878348;1690;65270;65127;16320;65070;2650;62844;99;65435;65521;0;0
403;1521878348;1925;65276;65122;16312;65052;2648;62829;78;65435;65511;0;0
404;1521878348;2080;65280;65127;16278;65049;2676;62830;75;65421;65530;0;0
405;1521878348;1773;65267;65140;16298;65060;2670;62854;72;65441;65512;0;0
406;1521878348;2176;65247;65124;16304;65044;2675;62841;83;65425;65495;0;0
407;1521878348;1784;65281;65118;16303;65062;2669;62837;56;65434;65491;0;0
408;1521878349;2206;65250;65125;16315;65066;2675;62861;78;65436;65505;0;0
409;1521878349;1786;65259;65118;16305;65106;2677;62831;55;65453;65515;0;0
410;1521878349;2208;65248;65123;16295;65093;2661;62820;69;65448;65509;0;0
411;1521878349;1775;65266;65113;16300;65073;2643;62824;50;65426;65521;0;0
412;1521878349;2213;65258;65126;16314;65108;2679;62889;74;65416;65509;0;0
413;1521878349;2080;65248;65118;16307;65087;2686;62845;53;65421;65507;0;0
414;1521878349;1896;65269;65122;16302;65026;2678;62831;88;65418;65527;0;0
415;1521878349;2185;65264;65116;16314;65061;2662;62820;72;65424;65508;0;0
416;1521878349;1867;65255;65131;16327;65094;2682;62838;75;65452;65507;0;0
417;1521878350;2099;65270;65119;16296;65103;2629;62813;95;65418;65490;0;0
418;1521878350;1834;65248;65139;16334;65075;2696;62848;44;65445;65515;0;0
419;1521878350;2188;65236;65100;16293;65072;2661;62821;51;65434;65497;0;0
420;1521878350;1804;65196;65383;15955;65095;2670;62850;78;65454;65506;0;0
421;1521878350;2312;65298;65205;15977;65085;2669;62821;49;65431;65496;0;0
422;1521878350;2088;65239;65133;16359;65109;2672;62851;83;65436;65481;0;0
423;1521878350;1877;65325;65107;16237;65084;2680;62826;87;65427;65494;0;0
424;1521878350;2084;65271;65148;16301;65073;2661;62799;70;65447;65528;0;0
425;1521878350;1921;65296;65132;16242;65075;2645;62825;40;65419;65493;0;0
426;1521878350;2124;65279;65101;16339;65097;2694;62822;73;65447;65505;0;0
427;1521878351;1856;65263;65098;16292;65109;2688;62816;69;65448;65285;0;0
428;1521878351;2243;65291;65137;16229;65105;2695;62827;75;65426;65528;0;0
429;1521878351;1642;65260;65118;16340;65086;2657;62794;68;65409;65494;0;0
430;1521878351;2343;65286;65092;16267;65090;2662;62847;65;65445;65507;0;0
431;1521878351;2022;65253;65148;16211;65059;2662;62854;42;65440;65526;0;0
432;1521878351;1942;65291;65147;16357;65101;2682;62826;59;65396;65487;0;0
433;1521878351;2124;65230;65144;16177;65068;2703;62841;64;65449;65525;0;0
434;1521878351;1907;65233;65194;16409;65085;2687;62795;82;65409;65507;0;0
435;1521878351;2163;65267;65084;16243;65107;2662;62803;89;65437;65503;0;0
436;1521878352;1744;65244;65003;16023;65095;2667;62824;55;65422;65496;0;0
437;1521878352;2236;65279;65162;16615;65093;2652;62849;87;65412;65503;0;0
438;1521878352;1761;65250;65132;16044;65099;2694;62817;88;65447;65527;0;0
439;1521878352;2314;65174;65295;16283;65077;2663;62844;103;65413;65504;0;0
440;1521878352;1748;65250;65091;16159;65057;2669;62804;114;65454;65502;0;0
441;1521878352;1920;65274;65139;16354;65074;2699;62838;115;65424;65531;0;0
442;1521878352;2065;65250;65050;16302;65099;2686;62819;88;65435;65503;0;0
443;1521878352;1869;65266;65088;16358;65086;2677;62826;31;65440;65490;0;0
444;1521878352;2206;65306;65080;16336;65066;2674;62838;55;65427;65482;0;0
445;1521878352;1821;65253;65118;16261;65058;2664;62855;70;65426;65515;0;0
446;1521878353;2176;65465;65082;16311;65090;2654;62805;53;109;65517;0;0
447;1521878353;1810;65217;65049;16375;65093;2684;62808;41;65375;65513;0;0
448;1521878353;2141;65269;65093;16309;65094;2676;62780;57;65448;65495;0;0
449;1521878353;1787;65217;65155;16363;65056;2668;62831;43;65440;65505;0;0
450;1521878353;1808;65287;65046;16249;65104;2637;62838;64;65439;65495;0;0
451;1521878353;2142;65352;65228;16943;65080;2649;62861;147;65407;65512;0;0
452;1521878353;1934;65288;65024;16136;65115;2669;62850;33;65465;65505;0;0
453;1521878353;2128;65206;65054;16465;65073;2684;62818;85;65403;65503;0;0
454;1521878353;1801;65313;65089;17135;65084;2690;62808;84;65410;65527;0;0
455;1521878353;2051;65188;65131;16332;65087;2677;62813;68;65461;65491;0;0
456;1521878354;1764;65310;65092;16235;65130;2676;62820;67;65425;65516;0;0
457;1521878354;2254;65235;65049;16271;65083;2665;62846;44;65449;65518;0;0
458;1521878354;1739;65290;65064;16511;65055;2664;62863;26;65431;65486;0;0
459;1521878354;2326;65242;64993;16220;65078;2684;62793;70;65420;65514;0;0
460;1521878354;1800;65242;65222;16359;65058;2679;62790;49;65427;65494;0;0
461;1521878354;1911;65189;65092;16076;65061;2672;62799;35;65416;65507;0;0
462;1521878354;2205;65113;65192;15710;65074;2702;62793;293;65120;63779;0;0
463;1521878354;1909;65314;65134;16326;65063;2698;62818;93;152;65485;0;0
464;1521878354;2194;65283;65073;16357;65051;2693;62831;67;65462;65499;0;0
465;1521878355;1809;65236;64967;16622;65087;2678;62812;58;65438;65494;0;0
466;1521878355;2200;65248;65007;16330;65109;2677;62835;72;65439;65504;0;0
467;1521878355;1698;65275;65042;16287;65085;2679;62816;82;65423;65509;0;0
468;1521878355;2432;65310;65171;16541;65072;2659;62817;115;65414;65501;0;0
469;1521878355;1655;65273;65214;16417;65063;2655;62839;80;65446;65510;0;0
470;1521878355;1923;65243;65078;16299;65082;2667;62814;44;65432;65518;0;0
471;1521878355;2099;65243;65180;16384;65046;2664;62850;64;65419;65522;0;0
472;1521878355;1846;65279;65044;15828;65089;2669;62791;55;65449;65516;0;0
473;1521878355;2134;65221;65100;16500;65097;2646;62828;107;65423;65502;0;0
474;1521878355;1730;65263;65067;16509;65081;2683;62804;103;65461;65506;0;0
475;1521878356;2212;65285;65048;16351;65069;2702;62848;38;65419;65494;0;0
476;1521878356;1804;65262;65137;16231;65095;2626;62811;59;65424;65504;0;0
477;1521878356;2312;65250;65117;16358;65119;2646;62835;68;65433;65534;0;0
478;1521878356;1817;65216;65173;15467;65103;2674;62831;102;65437;65509;0;0
479;1521878356;2318;65275;65098;16308;65075;2640;62774;105;65421;65496;0;0
480;1521878356;2076;65274;65145;16385;65099;2650;62824;112;65444;65495;0;0
481;1521878356;1870;65302;65068;16407;65056;2671;62798;73;65441;65510;0;0
482;1521878356;2191;65298;65056;16336;65097;2647;62786;76;65439;65507;0;0
483;1521878356;1865;65253;65084;16389;65085;2647;62797;79;65432;65510;0;0
484;1521878357;2255;65257;64937;16092;65106;2611;62793;65307;476;8;0;0
485;1521878357;1774;510;64903;16172;65116;2686;62810;65441;64759;65520;0;0
486;1521878357;2169;65340;65100;16363;65113;2696;62859;76;65413;65482;0;0
487;1521878357;1778;65249;65141;16237;65089;2653;62837;107;65445;65489;0;0
488;1521878357;2304;65316;65117;16415;65063;2660;62837;71;65419;65466;0;0
489;1521878357;2076;65260;65021;16289;65042;2641;62846;94;65426;65510;0;0
490;1521878357;1881;65170;65031;16392;65085;2686;62859;114;65160;65478;0;0
491;1521878357;2046;65230;65104;16254;65056;2655;62845;82;65469;65476;0;0
492;1521878357;1861;65258;65294;15368;65106;2665;62810;67;65417;65483;0;0
493;1521878357;2030;65261;65093;16424;65079;2635;62850;69;65431;65492;0;0
494;1521878358;1824;64569;64809;16513;65107;2650;62822;65197;639;65080;0;0
495;1521878358;2203;65182;65110;16355;65083;2648;62825;107;25;722;0;0
496;1521878358;1825;65246;65107;16070;65046;2644;62818;58;65433;65527;0;0
497;1521878358;2312;65252;65149;16357;65110;2613;62820;90;65422;65524;0;0
498;1521878358;2011;5150;252;11682;65081;2647;62813;65474;1456;347;0;0
499;1521878358;1948;65317;65018;16362;65070;2659;62857;116;43;65502;0;0
500;1521878358;2096;65275;65125;16300;65110;2630;62830;72;65408;65514;0;0
501;1521878358;1929;544;268;16571;65082;2682;62853;1400;60575;65274;0;0
502;1521878358;2151;65149;65101;16384;65112;2703;62909;66;65313;65492;0;0
503;1521878358;1828;65297;65117;16365;65108;2666;62856;95;65430;65495;0;0
504;1521878359;2179;65239;65129;16303;65108;2662;62784;68;65434;65500;0;0
505;1521878359;1789;65286;65118;16270;65081;2670;62840;52;65444;65509;0;0
506;1521878359;2290;65240;65117;16287;65100;2663;62787;76;65455;65501;0;0
507;1521878359;1754;65278;65096;16269;65113;2661;62823;90;65441;65500;0;0
508;1521878359;2253;65270;65134;16308;65089;2650;62858;73;65423;65489;0;0
509;1521878359;2068;65268;65105;16303;65113;2641;62874;71;65419;65491;0;0
510;1521878359;1883;65291;65086;16294;65104;2677;62912;78;65456;65497;0;0
511;1521878359;2172;65268;65118;16325;65075;2651;62860;75;65444;65495;0;0
512;1521878359;1872;65260;65115;16327;65118;2654;62867;78;65455;65515;0;0
513;1521878360;2193;65292;65072;16305;65125;2656;62850;97;65429;65508;0;0
514;1521878360;1826;65226;65093;16168;65122;2691;62827;88;65447;65517;0;0
515;1521878360;2111;65257;65165;16297;65129;2678;62815;89;65430;65511;0;0
516;1521878360;1811;65264;65080;16321;65112;2684;62847;57;65420;65515;0;0
517;1521878360;2228;65246;65095;16326;65115;2667;62813;92;65440;65491;0;0
518;1521878360;2073;65273;65094;16315;65093;2661;62883;81;65447;65529;0;0
519;1521878360;1920;65238;65100;16319;65103;2690;62863;83;65441;65501;0;0
520;1521878360;2022;65272;65125;16312;65121;2694;62847;58;65460;65495;0;0
521;1521878360;1770;65239;65105;16351;65094;2653;62853;75;65492;65493;0;0
522;1521878360;2019;65261;65099;16344;65124;2669;62845;81;65401;65510;0;0
523;1521878361;1670;65219;65149;16259;65064;2671;62815;61;65484;65509;0;0
524;1521878361;2173;65298;65113;16315;65071;2650;62849;55;65448;65515;0;0
525;1521878361;2039;65288;65114;16292;65129;2666;62844;80;65506;65526;0;0
526;1521878361;2251;65294;65124;16300;65075;2643;62847;40;65332;65495;0;0
527;1521878361;1733;65196;65111;16333;65066;2661;62863;64;65446;65514;0;0
528;1521878361;1851;65291;65067;16278;65075;2662;62831;68;65430;65522;0;0
529;1521878361;2113;65186;65134;16322;65079;2672;62864;88;65453;65517;0;0
530;1521878361;2177;65238;65123;16287;65101;2658;62837;85;65529;65510;0;0
531;1521878361;2108;65284;65095;16232;65083;2634;62834;29;65334;65520;0;0
532;1521878362;1971;65218;65134;16297;65094;2662;62837;74;65420;65520;0;0
533;1521878362;2261;65183;65094;16368;65077;2672;62865;69;65420;65505;0;0
534;1521878362;1767;65265;65112;16303;65093;2678;62816;88;65421;65505;0;0
535;1521878362;2301;65274;65108;16314;65089;2686;62810;49;65366;65489;0;0
536;1521878362;1706;65249;65126;16295;65101;2661;62863;80;65444;65517;0;0
537;1521878362;1906;65259;65112;16311;65099;2626;62806;70;65461;65515;0;0
538;1521878362;1464;65232;65117;16143;65105;2628;62807;94;65442;65518;0;0
539;1521878362;1805;65293;65117;16291;65073;2632;62830;60;65419;65509;0;0
540;1521878362;2096;65221;65103;16307;65096;2642;62808;76;65369;65507;0;0
541;1521878362;1715;65287;65111;16309;65127;2668;62805;45;65429;65512;0;0
542;1521878363;2128;65262;65118;16294;65057;2664;62837;69;65443;0;0;0
543;1521878363;1893;65277;65127;16312;65090;2655;62810;21;65117;65534;0;0
544;1521878363;2219;65289;65119;16284;65073;2654;62852;91;65414;65500;0;0
545;1521878363;1724;65304;65112;16368;65095;2652;62882;69;65406;65519;0;0
546;1521878363;1795;65277;65075;16310;65086;2686;62835;74;65440;65528;0;0
547;1521878363;2104;65272;65124;16286;65106;2654;62816;75;65446;65504;0;0
548;1521878363;1921;65242;65123;16279;65097;2654;62794;68;65419;65502;0;0
549;1521878363;2166;65259;65134;16276;65099;2666;62830;73;65420;65512;0;0
550;1521878363;1860;65378;65104;16295;65111;2637;62834;64;65282;65501;0;0
551;1521878363;2183;65261;65100;16351;65113;2657;62817;101;65424;65522;0;0
552;1521878364;1749;64566;65240;16382;65078;2640;62793;44;109;65508;0;0
553;1521878364;2254;65227;65123;16358;65158;2630;62835;90;65446;65479;0;0
554;1521878364;1788;104;65261;16231;65079;2675;62746;57;65361;65515;0;0
555;1521878364;2580;61451;325;16570;65076;2669;62822;61;303;65471;0;0
556;1521878364;2171;1923;64416;16298;65095;2713;62863;55;65024;65109;0;0
557;1521878364;1882;65250;65125;16286;65084;2694;62834;61;65420;65513;0;0
558;1521878364;2099;65247;65117;16261;65075;2686;62842;84;65417;65505;0;0
559;1521878364;1897;65237;65135;16309;65098;2685;62852;68;65450;65512;0;0
560;1521878364;2146;65253;65124;16255;65050;2687;62855;79;65442;65504;0;0
561;1521878365;1793;65252;65123;16319;65071;2675;62881;85;65450;65509;0;0
562;1521878365;2154;65238;65125;16307;65073;2669;62867;109;65449;65532;0;0
563;1521878365;1706;65282;65127;16253;65065;2678;62843;69;65452;65489;0;0
564;1521878365;2299;65253;65032;15771;65048;2692;62851;67;65504;65518;0;0
565;1521878365;1824;65258;65196;16426;65074;2667;62867;92;65419;65526;0;0
566;1521878365;1920;65240;65191;16448;65072;2667;62859;91;65424;65508;0;0
567;1521878365;2133;65276;65103;16276;65078;2663;62866;76;65419;65514;0;0
568;1521878365;1899;65221;65125;16357;65111;2658;62873;89;65428;65492;0;0
569;1521878365;2208;65274;65092;16182;65063;2662;62884;80;65433;65486;0;0
570;1521878365;1859;65228;65187;16424;65070;2692;62843;61;65413;65504;0;0
571;1521878366;2178;65284;65233;16104;65086;2681;62856;57;65421;65507;0;0
572;1521878366;1798;65264;65194;16165;65108;2691;62859;68;65458;65499;0;0
573;1521878366;2295;65269;65126;16312;65094;2714;62876;68;65431;65526;0;0
574;1521878366;2185;65292;65104;16233;65057;2651;62869;55;65461;65529;0;0
575;1521878366;1901;65166;65372;16101;65069;2647;62871;40;65449;65511;0;0
576;1521878366;2068;65307;65214;15780;65070;2647;62878;108;65430;65525;0;0
577;1521878366;1886;65235;65205;16549;65111;2618;62848;90;65419;65484;0;0
578;1521878366;2162;65320;65081;16343;65045;2667;62867;75;65440;65496;0;0
579;1521878366;2919;65264;65108;16094;65074;2634;62849;117;65453;65504;0;0
580;1521878367;2150;65310;64946;16680;65070;2641;62864;115;65433;65490;0;0
581;1521878367;1766;65291;65034;16940;65030;2662;62827;32;65451;65522;0;0
582;1521878367;2182;65249;64964;15895;65078;2702;62876;39;65452;65515;0;0
583;1521878367;1777;65231;65171;16376;65072;2649;62864;76;65425;65509;0;0
584;1521878367;2148;65268;65232;16556;65086;2649;62847;113;65432;65508;0;0
585;1521878367;2078;65288;64982;16265;65091;2650;62871;59;65438;65506;0;0
586;1521878367;1911;65258;65074;16615;65063;2675;62828;71;65451;65507;0;0
587;1521878367;2081;65227;64984;16361;65086;2651;62792;67;65451;65523;0;0
588;1521878367;1874;65197;65307;16019;65060;2661;62868;49;65427;65501;0;0
589;1521878367;2040;65220;65091;15831;65102;2662;62829;123;65438;65513;0;0
590;1521878368;1850;65239;65108;16617;65092;2668;62866;88;65450;65510;0;0
591;1521878368;2236;65285;65041;16361;65071;2651;62849;82;65427;65511;0;0
592;1521878368;1717;65252;65065;16331;65058;2688;62837;65;65420;65512;0;0
593;1521878368;2217;65271;65127;16380;65053;2662;62851;86;65430;65510;0;0
594;1521878368;1935;65240;65137;16230;65051;2671;62846;79;65428;65530;0;0
595;1521878368;1840;65250;65114;16388;65076;2721;62852;53;65439;65514;0;0
596;1521878368;2076;65242;65101;16308;65043;2709;62874;90;65448;65514;0;0
597;1521878368;1902;65250;65092;16325;65049;2696;62887;79;65419;65497;0;0
598;1521878368;2139;65250;65122;16293;65069;2681;62892;63;65432;65517;0;0
599;1521878368;1757;65241;65140;16287;65060;2638;62873;65;65427;65525;0;0
600;1521878369;2216;65262;65133;16266;65061;2650;62897;76;65429;65503;0;0
