 counter ; timestamp ; amplitude ; accx ; accy ; accz ; magx ; magy ; magz ; gyrx ; gyry ; gyrz ; temp ; act state
1;1521877803;2900;65290;65123;16329;65199;2698;62775;63;65452;65499;0;0
2;1521877803;1886;65271;65099;16261;65186;2735;62759;47;65418;65492;0;0
3;1521877803;2174;65265;65109;16323;65230;2696;62802;76;65416;14;0;0
4;1521877804;1771;65274;65106;16322;65191;2730;62753;62;65432;65527;0;0
5;1521877804;2277;65286;65118;16309;65205;2737;62779;50;65443;3;0;0
6;1521877804;1624;65279;65115;16294;65230;2695;62810;77;65432;65515;0;0
7;1521877804;2254;65275;65115;16301;65222;2715;62814;71;65425;65503;0;0
8;1521877804;1744;65272;65112;16306;65180;2703;62817;70;65429;65521;0;0
9;1521877804;2438;65288;65125;16311;65184;2692;62808;97;65447;65507;0;0
10;1521877804;2130;65262;65124;16329;65200;2734;62838;70;65444;65522;0;0
11;1521877804;1886;65266;65112;16310;65219;2711;62803;89;65450;65501;0;0
12;1521877804;2133;65284;65119;16300;65209;2721;62794;52;65435;65509;0;0
13;1521877804;1834;65275;65116;16289;65220;2691;62793;83;65442;65534;0;0
14;1521877805;2215;65275;65111;16299;65182;2708;62766;101;65449;65497;0;0
15;1521877805;2487;65278;65119;16343;65234;2702;62790;70;65444;65514;0;0
16;1521877805;2117;65270;65099;16302;65211;2722;62800;102;65432;65529;0;0
17;1521877805;1888;65256;65120;16303;65185;2722;62840;80;65452;65510;0;0
18;1521877805;2246;65272;65108;16271;65237;2721;62818;89;65423;65497;0;0
19;1521877805;1816;65274;65124;16328;65227;2712;62801;84;65439;65494;0;0
20;1521877805;2244;65275;65116;16295;65224;2715;62800;98;65458;65511;0;0
21;1521877805;1761;65280;65123;16288;65204;2713;62840;97;65441;5;0;0
22;1521877805;2232;65276;65105;16274;65207;2715;62789;74;65459;65500;0;0
23;1521877805;1752;65275;65121;16321;65191;2715;62789;86;65441;65509;0;0
24;1521877806;2180;65272;65133;16294;65173;2705;62833;68;65418;65503;0;0
25;1521877806;1723;65268;65106;16297;65227;2679;62842;52;65445;65512;0;0
26;1521877806;1823;65283;65104;16296;65204;2703;62796;64;65442;65526;0;0
27;1521877806;2119;65276;65122;16321;65204;2702;62819;74;65440;65515;0;0
28;1521877806;1913;65280;65113;16296;65217;2716;62811;89;65443;65515;0;0
29;1521877806;2108;65269;65113;16293;65208;2706;62833;101;65436;65529;0;0
30;1521877806;1869;65277;65123;16310;65200;2681;62831;77;65440;65532;0;0
31;1521877806;2110;65274;65113;16272;65202;2685;62812;78;65455;65513;0;0
32;1521877806;1792;65281;65113;16365;65192;2721;62804;74;65438;65529;0;0
33;1521877807;2323;65267;65116;16299;65191;2695;62767;89;65459;65527;0;0
34;1521877807;1691;65272;65117;16290;65215;2695;62814;87;65431;65513;0;0
35;1521877807;2366;65288;65114;16252;65205;2745;62814;77;65433;3;0;0
36;1521877807;1701;65294;65117;16306;65184;2718;62805;89;65429;65513;0;0
37;1521877807;1876;65274;65119;16361;65213;2716;62815;60;65470;65513;0;0
38;1521877807;2150;65275;65090;16266;65221;2715;62796;66;65451;65493;0;0
39;1521877807;1882;65276;65116;16304;65203;2681;62793;56;65449;65497;0;0
40;1521877807;2202;65282;65123;16320;65203;2707;62803;76;65410;65512;0;0
41;1521877807;1824;65283;65109;16296;65223;2720;62806;78;65420;65514;0;0
42;1521877807;2228;65268;65123;16308;65202;2738;62781;67;65436;65514;0;0
43;1521877808;1727;65282;65128;16271;65198;2744;62760;77;65437;65519;0;0
44;1521877808;2351;65283;65129;16303;65197;2724;62806;44;65419;65513;0;0
45;1521877808;1673;65276;65122;16303;65199;2732;62800;84;65457;3;0;0
46;1521877808;1938;65266;65121;16304;65215;2747;62812;76;65426;65520;0;0
47;1521877808;2115;65279;65114;16292;65210;2744;62781;55;65432;65522;0;0
48;1521877808;1811;65262;65120;16323;65181;2726;62799;61;65451;65529;0;0
49;1521877808;2138;65271;65118;16299;65179;2697;62824;74;65422;65504;0;0
50;1521877808;1752;65273;65113;16298;65231;2729;62821;60;65451;65492;0;0
51;1521877808;2170;65533;65126;16258;65238;2718;62816;94;65427;65500;0;0
52;1521877809;1788;65268;65117;16311;65252;2723;62768;80;65445;65519;0;0
53;1521877809;2159;65285;65100;16297;65209;2717;62800;81;65437;65519;0;0
54;1521877809;1714;65259;65114;16260;65224;2698;62801;90;65418;65507;0;0
55;1521877809;1758;65265;65119;16351;65233;2686;62824;78;65452;65514;0;0
56;1521877809;1649;65281;65125;16289;65213;2695;62769;69;65438;65514;0;0
57;1521877809;1912;65267;65116;16327;65226;2699;62812;96;65440;65517;0;0
58;1521877809;2182;65263;65100;16271;65215;2685;62816;96;65433;65513;0;0
59;1521877809;1901;65255;65118;16296;65192;2729;62820;76;65455;24;0;0
60;1521877809;2130;65258;65107;16303;65180;2714;62842;70;65423;238;0;0
61;1521877809;1779;65274;65111;16297;65210;2682;62840;60;65452;65533;0;0
62;1521877810;2255;65278;65111;16326;65211;2722;62844;89;65449;9;0;0
63;1521877810;1838;65278;65114;16292;65213;2705;62859;88;65432;65506;0;0
64;1521877810;2302;65278;65107;16300;65222;2752;62824;88;65473;65528;0;0
65;1521877810;1723;65280;65116;16308;65207;2695;62826;50;65440;65534;0;0
66;1521877810;1961;65276;65111;16296;65214;2694;62832;51;65430;65498;0;0
67;1521877810;2142;65267;65121;16299;65241;2714;62830;51;65436;65506;0;0
68;1521877810;1903;65273;65111;16305;65231;2723;62779;50;65463;65526;0;0
69;1521877810;2154;65290;65119;16276;65250;2710;62806;67;65431;65519;0;0
70;1521877810;1836;65272;65112;16305;65260;2724;62800;72;65416;65504;0;0
71;1521877810;2156;65301;65115;16292;65267;2730;62808;55;65446;65512;0;0
72;1521877811;1702;65275;65111;16320;65259;2720;62829;52;65436;65518;0;0
73;1521877811;2321;65285;65116;16301;65248;2679;62768;86;65433;65501;0;0
74;1521877811;1669;65272;65110;16273;65258;2675;62802;72;65443;65474;0;0
75;1521877811;2267;65282;65117;16353;65272;2687;62819;84;65441;65527;0;0
76;1521877811;1681;65267;65120;16304;65216;2694;62810;46;65458;65484;0;0
77;1521877811;1851;65276;65119;16336;65237;2699;62779;85;65445;65509;0;0
78;1521877811;2159;65281;65110;16302;65218;2738;62795;74;65447;249;0;0
79;1521877811;1712;65263;65104;16303;65255;2673;62808;91;65441;65522;0;0
80;1521877811;2177;65274;65104;16325;65242;2696;62743;93;65434;4;0;0
81;1521877812;1839;65281;65104;16282;65215;2687;62741;60;65447;65514;0;0
82;1521877812;2184;65275;65115;16299;65218;2666;62826;57;65437;65520;0;0
83;1521877812;1852;65270;65109;16312;65243;2667;62784;75;65441;65502;0;0
84;1521877812;2287;65293;65111;16296;65236;2664;62821;80;65446;65506;0;0
85;1521877812;1707;65270;65117;16322;65214;2709;62815;71;65425;65515;0;0
86;1521877812;2081;65261;65108;16309;65221;2734;62813;82;65446;65499;0;0
87;1521877812;2133;65291;65128;16296;65222;2729;62815;64;65433;65501;0;0
88;1521877812;1876;65272;65103;16295;65198;2736;62797;59;65452;65524;0;0
89;1521877812;2129;65302;65114;16293;65239;2714;62834;99;65427;65497;0;0
90;1521877812;1874;65250;65125;16302;65242;2704;62791;93;65450;65506;0;0
91;1521877813;2141;65302;65100;16295;65210;2739;62797;68;65432;65497;0;0
92;1521877813;1879;65262;65115;16328;65190;2704;62843;51;65431;65512;0;0
93;1521877813;2270;65275;65108;16313;65224;2715;62834;77;65425;65518;0;0
94;1521877813;1766;65295;65129;16270;65253;2720;62813;69;65422;65503;0;0
95;1521877813;2345;65264;65127;16340;65214;2697;62814;83;65438;65488;0;0
96;1521877813;2074;65264;65097;16287;65225;2693;62844;60;65431;65517;0;0
97;1521877813;1950;65288;65121;16329;65239;2701;62813;59;65438;65503;0;0
98;1521877813;2070;65271;65114;16289;65229;2698;62806;76;65425;65527;0;0
99;1521877813;1882;65269;65121;16307;65237;2704;62857;92;65465;65490;0;0
100;1521877814;2176;65284;65125;16351;65245;2710;62822;70;65441;65527;0;0
101;1521877814;1774;65293;65099;16278;65223;2698;62813;92;65447;65501;0;0
102;1521877814;2260;65274;65117;16325;65199;2680;62831;70;65437;65520;0;0
103;1521877814;1683;65273;65117;16311;65221;2695;62838;70;65402;65509;0;0
104;1521877814;2284;65528;65137;16303;65239;2693;62825;86;65429;65496;0;0
105;1521877814;1725;65245;65109;16325;65224;2681;62806;75;65457;6;0;0
106;1521877814;2289;65274;65107;16346;65211;2693;62851;38;65435;65503;0;0
107;1521877814;2129;65302;65108;16308;65209;2708;62848;66;65419;65496;0;0
108;1521877814;1736;65265;65115;16306;65196;2722;62876;62;65441;65500;0;0
109;1521877814;2070;65285;65099;16298;65207;2694;62849;86;65422;65488;0;0
110;1521877815;1876;65257;65119;16313;65232;2688;62854;85;65453;65523;0;0
111;1521877815;2170;65291;65101;16292;65216;2680;62859;80;65440;65522;0;0
112;1521877815;1914;65273;65128;16345;65221;2727;62848;83;65447;65501;0;0
113;1521877815;2226;65279;65115;16274;65218;2712;62828;78;65432;65506;0;0
114;1521877815;1796;65284;65111;16322;65220;2705;62826;77;65436;65512;0;0
115;1521877815;2300;65278;65121;16298;65200;2698;62808;82;65440;65518;0;0
116;1521877815;1173;65292;65125;16273;65248;2690;62815;71;65447;65511;0;0
117;1521877815;1927;65272;65133;16334;65214;2708;62813;92;65425;65505;0;0
118;1521877815;1647;65269;65094;16297;65214;2684;62770;53;65428;65529;0;0
119;1521877815;1880;65278;65120;16319;65199;2701;62823;87;65446;65510;0;0
120;1521877816;2075;65289;65115;16296;65202;2718;62838;93;65454;65518;0;0
121;1521877816;1910;65282;65132;16311;65211;2671;62787;82;65443;65489;0;0
122;1521877816;2127;65284;65103;16325;65228;2667;62750;78;65428;65513;0;0
123;1521877816;1826;65287;65105;16306;65223;2638;62810;65;65440;65522;0;0
124;1521877816;2249;65296;65133;16287;65223;2656;62802;68;65421;65512;0;0
125;1521877816;1689;65256;65109;16304;65235;2662;62789;99;65426;65520;0;0
126;1521877816;2322;65313;65125;16296;65246;2673;62788;94;65450;65494;0;0
127;1521877816;1525;65258;65120;16302;65219;2665;62823;75;65451;19;0;0
128;1521877816;1927;65292;65111;16271;65228;2703;62788;84;65424;65524;0;0
129;1521877817;2111;65285;65125;16310;65212;2685;62809;86;65445;65521;0;0
130;1521877817;1864;65259;65118;16322;65217;2700;62824;82;65427;65523;0;0
131;1521877817;2195;65271;65114;16283;65211;2673;62832;62;65445;65527;0;0
132;1521877817;1843;65268;65087;16327;65240;2710;62843;70;65432;65509;0;0
133;1521877817;2212;65287;65104;16302;65222;2686;62851;79;65419;65507;0;0
134;1521877817;1822;65261;65138;16305;65190;2708;62852;71;65441;65516;0;0
135;1521877817;2297;65246;65116;16278;65227;2647;62859;72;65451;65520;0;0
136;1521877817;1782;65291;65131;16258;65236;2667;62809;87;65450;65496;0;0
137;1521877817;2287;65276;65106;16326;65257;2701;62844;67;65456;2;0;0
138;1521877817;1634;65268;65108;16263;65257;2670;62800;64;65448;65512;0;0
139;1521877818;1944;65266;65111;16344;65253;2687;62854;70;65440;65496;0;0
140;1521877818;2165;65252;65101;16296;65240;2702;62841;84;65413;65526;0;0
141;1521877818;1875;65289;65117;16341;65235;2686;62816;70;65442;65502;0;0
142;1521877818;2172;65284;65106;16328;65205;2679;62786;84;65438;0;0;0
143;1521877818;1819;65269;65097;16287;65213;2675;62840;61;65456;65505;0;0
144;1521877818;2219;65275;65132;16299;65209;2655;62800;96;65436;65522;0;0
145;1521877818;1840;65249;65110;16300;65232;2717;62780;56;65414;65527;0;0
146;1521877818;2269;65297;65108;16270;65250;2721;62846;59;65442;65505;0;0
147;1521877818;1741;65259;65113;16324;65239;2689;62885;44;65428;65515;0;0
148;1521877819;2324;65261;65102;16298;65244;2701;62823;66;65442;65493;0;0
149;1521877819;2046;65278;65102;16294;65242;2712;62836;53;65434;65517;0;0
150;1521877819;1916;65247;65118;16294;65239;2704;62797;98;65437;65491;0;0
151;1521877819;2108;65293;65115;16293;65242;2722;62792;53;65448;65507;0;0
152;1521877819;1857;65274;65105;16310;65244;2729;62806;61;65429;65512;0;0
153;1521877819;2163;65285;65112;16299;65217;2704;62818;47;65449;65525;0;0
154;1521877819;1735;65255;65110;16323;65217;2729;62783;67;65409;65534;0;0
155;1521877819;2283;65290;65105;16335;65251;2704;62794;93;65456;2;0;0
156;1521877819;1578;65268;65127;16274;65247;2751;62798;81;65445;65510;0;0
157;1521877819;2357;65283;65130;16334;65238;2726;62766;94;65416;65501;0;0
158;1521877820;1718;65286;65102;16296;65241;2739;62828;72;65446;65523;0;0
159;1521877820;2390;65276;65115;16301;65221;2695;62833;74;65440;65525;0;0
160;1521877820;2119;65273;65119;16293;65219;2713;62846;64;65448;65515;0;0
161;1521877820;1761;65535;65106;16260;65229;2691;62813;70;65440;65500;0;0
162;1521877820;2147;65248;65119;16326;65187;2671;62816;71;65441;65505;0;0
163;1521877820;1847;65272;65115;16307;65234;2690;62763;81;65450;5;0;0
164;1521877820;2243;65300;65118;16292;65252;2685;62799;55;65457;65523;0;0
165;1521877820;1798;65250;65112;16294;65214;2673;62848;71;65440;65501;0;0
166;1521877820;2221;65284;65113;16295;65205;2681;62797;45;65425;65489;0;0
167;1521877820;1740;65285;65121;16298;65240;2696;62769;67;65454;65520;0;0
168;1521877821;2336;65278;65119;16295;65211;2688;62798;79;65449;65517;0;0
169;1521877821;1840;65273;65129;16298;65250;2686;62824;69;65431;65489;0;0
170;1521877821;1887;65254;65117;16351;65222;2665;62799;79;65426;65514;0;0
171;1521877821;2141;65280;65116;16282;65230;2707;62859;52;65452;65492;0;0
172;1521877821;1855;65267;65119;16297;65235;2674;62765;64;65405;65490;0;0
173;1521877821;2123;65293;65100;16294;65229;2698;62790;82;65438;65490;0;0
174;1521877821;1893;65256;65094;16324;65210;2702;62797;44;65439;65502;0;0
175;1521877821;2256;65291;65088;16334;65232;2705;62821;102;65433;65489;0;0
176;1521877821;1718;65277;65097;16263;65216;2711;62783;76;65453;65514;0;0
177;1521877822;2308;65260;65119;16355;65241;2665;62828;70;65422;65529;0;0
178;1521877822;1622;65286;65110;16306;65232;2706;62785;76;65428;65518;0;0
179;1521877822;1913;65280;65113;16294;65211;2709;62773;56;65416;65509;0;0
180;1521877822;2008;65262;65114;16254;65202;2683;62799;70;65441;65494;0;0
181;1521877822;1869;65283;65109;16293;65218;2684;62811;42;65467;65499;0;0
182;1521877822;2136;65261;65122;16300;65251;2727;62830;80;65432;65514;0;0
183;1521877822;1745;65271;65101;16307;65244;2728;62775;63;65451;65535;0;0
184;1521877822;2225;65295;65118;16295;65210;2708;62801;53;65434;65503;0;0
185;1521877822;1726;65254;65108;16294;65230;2713;62814;81;65430;65529;0;0
186;1521877822;2219;65276;65116;16279;65219;2702;62826;63;65435;65487;0;0
187;1521877823;1782;65279;65112;16314;65209;2716;62816;84;65414;65503;0;0
188;1521877823;2258;65268;65098;16297;65237;2736;62811;84;65462;65492;0;0
189;1521877823;1805;65267;65126;16302;65252;2710;62803;64;65423;65516;0;0
190;1521877823;1790;65277;65124;16341;65225;2674;62809;92;65433;65502;0;0
191;1521877823;2146;65278;65112;16252;65236;2673;62837;92;65441;65500;0;0
192;1521877823;1837;65262;65115;16327;65233;2723;62829;70;65443;1;0;0
193;1521877823;2182;65270;65107;16274;65259;2704;62814;80;65433;16;0;0
194;1521877823;1850;65281;65106;16322;65229;2690;62782;52;65456;65516;0;0
195;1521877823;2149;65267;65110;16326;65256;2696;62850;88;65434;65510;0;0
196;1521877824;1754;65277;65107;16266;65218;2712;62803;73;65446;65471;0;0
197;1521877824;2320;65278;65123;16326;65247;2695;62823;93;65412;65514;0;0
198;1521877824;1682;65281;65101;16294;65250;2712;62827;89;65418;65511;0;0
199;1521877824;1918;65271;65119;16284;65275;2678;62809;45;65427;65497;0;0
200;1521877824;2078;65255;65118;16298;65253;2684;62809;69;65457;65529;0;0
201;1521877824;1895;65275;65106;16270;65243;2707;62818;47;65454;65507;0;0
202;1521877824;2148;65268;65118;16298;65245;2699;62824;72;65421;65516;0;0
203;1521877824;1909;65261;65108;16309;65220;2716;62827;59;65443;65523;0;0
204;1521877824;2241;65290;65111;16294;65228;2679;62826;91;65446;65519;0;0
205;1521877824;1819;65301;65111;16333;65234;2694;62807;76;65436;65530;0;0
206;1521877825;2316;65266;65102;16324;65254;2699;62820;95;65442;0;0;0
207;1521877825;1759;65279;65110;16324;65220;2705;62835;78;65420;65515;0;0
208;1521877825;2374;65278;65101;16297;65226;2694;62856;77;65433;65502;0;0
209;1521877825;1705;65522;65096;16303;65229;2728;62823;84;65432;65534;0;0
210;1521877825;1908;65261;65108;16313;65263;2718;62838;62;65437;65524;0;0
211;1521877825;2109;65287;65119;16300;65234;2761;62792;65;65458;8;0;0
212;1521877825;1792;65288;65096;16302;65222;2698;62734;70;65454;65524;0;0
213;1521877825;2250;65269;65100;16334;65236;2699;62796;109;65425;65534;0;0
214;1521877825;1791;65260;65100;16312;65254;2691;62825;77;65441;65495;0;0
215;1521877825;2248;65283;65121;16311;65222;2686;62810;86;65466;65505;0;0
216;1521877826;1827;65278;65124;16272;65221;2690;62783;69;65439;65527;0;0
217;1521877826;2248;65264;65107;16340;65217;2727;62805;78;65446;65525;0;0
218;1521877826;1739;65272;65108;16297;65267;2729;62761;77;65463;65512;0;0
219;1521877826;1791;65279;65109;16299;65239;2740;62805;47;65437;65512;0;0
220;1521877826;2122;65263;65113;16319;65226;2714;62813;52;65444;65531;0;0
221;1521877826;1869;65271;65111;16295;65255;2713;62840;65;65411;65500;0;0
222;1521877826;2045;65277;65111;16299;65257;2710;62774;60;65436;65520;0;0
223;1521877826;1866;65268;65116;16309;65223;2720;62849;104;65432;65531;0;0
224;1521877826;2115;65274;65117;16295;65236;2713;62844;69;65426;65530;0;0
225;1521877827;1786;65270;65115;16320;65235;2697;62777;87;65449;65512;0;0
226;1521877827;2299;65024;65108;16300;65224;2699;62811;82;65443;65512;0;0
227;1521877827;1528;65279;65108;16298;65244;2733;62796;67;65440;65520;0;0
228;1521877827;2374;65274;65100;16295;65230;2720;62783;80;65455;65533;0;0
229;1521877827;1997;65287;65107;16310;65232;2705;62781;68;65437;65519;0;0
230;1521877827;1853;65263;65105;16330;65211;2730;62812;91;65454;65506;0;0
231;1521877827;2146;65278;65122;16299;65224;2745;62837;56;65419;65510;0;0
232;1521877827;1831;65269;65109;16323;65228;2714;62819;73;65439;65510;0;0
233;1521877827;2225;65265;65115;16343;65223;2732;62772;96;65429;65502;0;0
234;1521877827;1806;65287;65119;16299;65245;2685;62827;65;65437;65515;0;0
235;1521877828;2257;65253;65122;16333;65222;2712;62834;82;65459;65511;0;0
236;1521877828;1766;65264;65101;16265;65240;2740;62822;53;65430;65521;0;0
237;1521877828;2399;65278;65109;16309;65234;2703;62852;53;65440;65535;0;0
238;1521877828;2079;65278;65106;16308;65264;2724;62849;79;65440;65505;0;0
239;1521877828;1901;65279;65117;16297;65248;2719;62891;87;65459;65486;0;0
240;1521877828;2211;65282;65121;16293;65215;2713;62822;66;65447;65526;0;0
241;1521877828;1867;65265;65111;16276;65248;2735;62832;100;65427;65517;0;0
242;1521877828;2200;65266;65115;16317;65217;2719;62796;93;65428;65529;0;0
243;1521877828;1849;65266;65094;16296;65265;2752;62827;56;65418;65509;0;0
244;1521877829;2260;65532;65112;16299;65242;2745;62791;60;65429;65518;0;0
245;1521877829;1746;65279;65111;16320;65245;2717;62859;57;65452;65491;0;0
246;1521877829;2300;65281;65109;16283;65242;2708;62829;72;65443;65514;0;0
247;1521877829;1682;65284;65122;16331;65268;2704;62791;78;65468;65511;0;0
248;1521877829;2315;65285;65097;16313;65247;2701;62831;89;65439;65495;0;0
249;1521877829;2069;65289;65120;16302;65210;2725;62809;51;65444;65502;0;0
250;1521877829;1882;65288;65117;16329;65213;2724;62800;78;65448;65487;0;0
251;1521877829;2061;65282;65099;16273;65230;2691;62778;47;65459;65517;0;0
252;1521877829;1862;65258;65116;16315;65239;2720;62790;78;65452;65500;0;0
253;1521877829;2188;65272;65093;16306;65243;2715;62813;91;65428;65499;0;0
254;1521877830;1793;65281;65107;16302;65223;2701;62808;110;65441;65519;0;0
255;1521877830;2266;65265;65122;16322;65201;2685;62829;70;65430;65524;0;0
256;1521877830;1614;65279;65104;16290;65226;2728;62839;65;65455;65505;0;0
257;1521877830;2392;65282;65115;16297;65218;2708;62850;88;65432;65518;0;0
258;1521877830;2022;65264;65100;16244;65246;2713;62827;81;65434;65497;0;0
259;1521877830;1918;65280;65098;16295;65223;2701;62821;60;65425;65532;0;0
260;1521877830;2123;65286;65112;16339;65250;2689;62834;72;65430;65500;0;0
261;1521877830;1712;65030;65099;16280;65252;2728;62796;70;65449;65497;0;0
262;1521877830;2166;65275;65110;16312;65220;2706;62821;72;65447;65496;0;0
263;1521877830;1683;65305;65078;16300;65189;2703;62797;82;65435;65501;0;0
264;1521877831;2198;65265;65125;16303;65221;2702;62813;83;65439;65474;0;0
265;1521877831;1763;65280;65128;16321;65235;2698;62789;96;65446;65519;0;0
266;1521877831;2257;65275;65142;16295;65247;2712;62779;82;65436;65499;0;0
267;1521877831;1690;65288;65124;16241;65189;2698;62778;81;65443;65504;0;0
268;1521877831;2317;65278;65132;16312;65236;2687;62788;72;65436;65498;0;0
269;1521877831;2062;65293;65118;16302;65230;2686;62794;83;65432;65513;0;0
270;1521877831;1913;65279;65109;16295;65224;2687;62800;89;65443;65501;0;0
271;1521877831;2197;65295;65108;16279;65220;2694;62830;80;65450;65513;0;0
272;1521877831;1844;65269;65110;16296;65190;2704;62857;76;65441;65503;0;0
273;1521877832;2189;65261;65117;16344;65207;2733;62890;82;65461;65523;0;0
274;1521877832;1785;65273;65103;16300;65214;2704;62849;75;65431;65511;0;0
275;1521877832;2236;65251;65110;16317;65213;2728;62820;96;65445;65500;0;0
276;1521877832;1805;65258;65107;16295;65223;2709;62818;99;65462;65490;0;0
277;1521877832;2370;65277;65114;16352;65195;2718;62812;93;65437;65533;0;0
278;1521877832;1716;65266;65105;16292;65164;2677;62781;67;65447;65513;0;0
279;1521877832;1909;65268;65098;16293;65185;2705;62833;92;65427;65497;0;0
280;1521877832;2120;65274;65113;16327;65212;2686;62839;66;65434;65532;0;0
281;1521877832;1903;65256;65100;16265;65226;2688;62857;78;65437;65495;0;0
282;1521877832;2130;65269;65108;16296;65170;2703;62800;68;65451;65494;0;0
283;1521877833;1817;65277;65102;16298;65187;2713;62821;85;65429;65524;0;0
284;1521877833;2215;65297;65105;16286;65189;2698;62794;72;65435;65516;0;0
285;1521877833;1756;65275;65122;16295;65193;2735;62847;104;65435;65511;0;0
286;1521877833;2338;65259;65113;16297;65230;2716;62781;55;65446;65494;0;0
287;1521877833;1692;65295;65120;16313;65221;2714;62798;78;65422;0;0;0
288;1521877833;1910;65253;65114;16318;65243;2685;62817;68;65436;65525;0;0
289;1521877833;1705;65270;65124;16296;65215;2663;62804;81;65438;65514;0;0
290;1521877833;1812;65283;65111;16309;65197;2689;62788;66;65426;65513;0;0
291;1521877833;2184;65258;65106;16295;65208;2689;62824;54;65463;65481;0;0
292;1521877834;1772;65283;65116;16301;65212;2712;62825;60;65434;12;0;0
293;1521877834;2227;65265;65115;16320;65193;2690;62842;95;65442;65497;0;0
294;1521877834;1792;65275;65116;16272;65218;2686;62831;79;65437;65518;0;0
295;1521877834;2196;65277;65124;16318;65219;2701;62793;76;65429;65507;0;0
296;1521877834;1781;65269;65120;16246;65219;2669;62823;66;65420;65509;0;0
297;1521877834;2176;65287;65097;16351;65206;2677;62806;71;65452;65535;0;0
298;1521877834;1647;65270;65116;16301;65246;2732;62839;82;65451;65492;0;0
299;1521877834;1885;65279;65120;16285;65217;2703;62848;75;65424;65523;0;0
300;1521877834;2007;65280;65111;16297;65184;2678;62801;82;65418;65503;0;0
301;1521877834;1886;65262;65109;16282;65188;2683;62834;73;65438;65518;0;0
302;1521877835;2028;65282;65117;16301;65245;2675;62863;83;65429;65524;0;0
303;1521877835;1826;65269;65111;16311;65235;2671;62860;65;65459;65512;0;0
304;1521877835;2193;65273;65125;16292;65213;2680;62855;93;65432;65511;0;0
305;1521877835;1814;65285;65105;16296;65215;2711;62814;56;65418;65508;0;0
306;1521877835;2312;65264;65111;16305;65220;2678;62815;69;65403;65512;0;0
307;1521877835;1653;65279;65107;16313;65191;2695;62839;87;65435;65505;0;0
308;1521877835;1912;65275;65107;16295;65201;2744;62831;75;65438;65504;0;0
309;1521877835;2116;65260;65113;16295;65224;2697;62793;82;65430;65508;0;0
310;1521877835;1963;65271;65125;16343;65202;2688;62799;75;65448;65521;0;0
311;1521877835;2173;65291;65116;16292;65192;2710;62807;76;65424;65517;0;0
312;1521877836;1876;65281;65111;16294;65235;2694;62782;88;65452;65523;0;0
313;1521877836;2162;65252;65128;16334;65200;2712;62812;97;65439;65506;0;0
314;1521877836;1783;65528;65105;16292;65223;2706;62825;73;65427;65526;0;0
315;1521877836;2304;65263;65112;16316;65212;2715;62826;86;65430;65492;0;0
316;1521877836;1765;65271;65108;16256;65220;2710;62794;56;65426;65509;0;0
317;1521877836;2306;65270;65120;16357;65238;2712;62834;68;65428;65501;0;0
318;1521877836;1655;65264;65102;16290;65201;2714;62806;92;65437;65515;0;0
319;1521877836;1874;65274;65113;16300;65248;2721;62892;74;65439;65497;0;0
320;1521877836;2140;65276;65129;16288;65208;2723;62800;88;65452;65493;0;0
321;1521877837;1850;65277;65111;16292;65175;2714;62820;98;65459;65534;0;0
322;1521877837;2143;65277;65110;16294;65229;2707;62837;85;65452;65523;0;0
323;1521877837;1858;65272;65119;16294;65217;2683;62837;78;65465;65514;0;0
324;1521877837;2097;65283;65112;16299;65247;2710;62876;90;65435;65503;0;0
325;1521877837;1850;65269;65101;16310;65245;2733;62812;79;65436;65471;0;0
326;1521877837;2216;65270;65124;16293;65234;2713;62795;66;65447;65498;0;0
327;1521877837;1707;65296;65120;16301;65215;2737;62785;67;65427;65517;0;0
328;1521877837;1907;65294;65123;16321;65229;2722;62790;70;65454;65496;0;0
329;1521877837;2053;65275;65103;16297;65220;2698;62767;83;65450;65469;0;0
330;1521877837;1939;65264;65119;16312;65219;2700;62847;82;65429;65533;0;0
331;1521877838;1978;65296;65114;16290;65233;2672;62780;70;65443;65507;0;0
332;1521877838;1888;65271;65105;16305;65222;2698;62813;87;65421;65495;0;0
333;1521877838;2142;65263;65122;16313;65197;2725;62812;95;65423;65497;0;0
334;1521877838;1710;65277;65119;16293;65199;2697;62836;77;65433;65534;0;0
335;1521877838;2284;65270;65109;16316;65212;2696;62818;75;65446;65497;0;0
336;1521877838;1579;65265;65105;16299;65219;2692;62853;74;65446;65523;0;0
337;1521877838;2280;65279;65122;16299;65190;2710;62801;88;65446;65516;0;0
338;1521877838;1639;65279;65109;16281;65198;2717;62862;90;65429;65517;0;0
339;1521877838;1951;65280;65099;16292;65216;2699;62786;74;65449;65521;0;0
340;1521877839;2158;65248;65129;16298;65221;2710;62831;88;65446;65514;0;0
341;1521877839;1842;65279;65117;16271;65229;2714;62833;73;65434;65482;0;0
342;1521877839;2155;65285;65120;16293;65225;2727;62850;68;65437;65523;0;0
343;1521877839;1840;65263;65111;16321;65220;2712;62815;75;65447;65501;0;0
344;1521877839;2216;65273;65117;16294;65219;2710;62763;96;65435;65473;0;0
345;1521877839;1805;65273;65118;16342;65207;2718;62848;68;65424;65532;0;0
346;1521877839;2306;65277;65120;16298;65254;2683;62830;87;65428;65503;0;0
347;1521877839;1724;65281;65111;16294;65222;2703;62857;83;65438;65511;0;0
348;1521877839;2201;65271;65111;16348;65212;2708;62790;94;65454;65518;0;0
349;1521877839;2132;65275;65109;16296;65214;2712;62836;108;65435;65504;0;0
350;1521877840;1900;65257;65112;16317;65221;2733;62829;79;65433;65504;0;0
351;1521877840;2137;65279;65096;16279;65191;2693;62858;66;65439;65511;0;0
352;1521877840;1872;65291;65111;16318;65211;2663;62826;85;65439;65516;0;0
353;1521877840;2114;65270;65104;16324;65228;2683;62811;76;65417;65494;0;0
354;1521877840;1879;65297;65124;16264;65256;2726;62851;77;65424;65511;0;0
355;1521877840;2211;65281;65113;16300;65266;2661;62804;79;65431;65476;0;0
356;1521877840;1740;65265;65098;16309;65195;2702;62845;81;65451;65506;0;0
357;1521877840;2259;65279;65119;16303;65229;2707;62824;91;65421;65520;0;0
358;1521877840;1580;65270;65124;16304;65234;2695;62796;94;65444;65530;0;0
359;1521877840;1969;65270;65105;16301;65258;2702;62822;83;65445;65514;0;0
360;1521877841;2062;65252;65117;16310;65246;2696;62769;76;65434;65497;0;0
361;1521877841;1897;65268;65119;16285;65237;2730;62822;36;65433;65524;0;0
362;1521877841;2172;65274;65117;16318;65200;2697;62802;88;65437;65512;0;0
363;1521877841;1751;65260;65112;16308;65220;2701;62787;71;65426;65501;0;0
364;1521877841;2214;65275;65122;16294;65202;2715;62796;71;65425;65502;0;0
365;1521877841;1668;65284;65134;16338;65232;2697;62851;44;65438;65530;0;0
366;1521877841;2249;65031;65098;16293;65204;2705;62802;62;65428;65491;0;0
367;1521877841;1688;65284;65121;16295;65210;2687;62817;99;65437;65518;0;0
368;1521877841;2240;65245;65100;16329;65205;2749;62790;95;65452;65492;0;0
369;1521877842;2117;65288;65112;16304;65228;2715;62825;47;65415;65489;0;0
370;1521877842;1729;65276;65116;16287;65212;2733;62824;94;65458;65501;0;0
371;1521877842;2097;65270;65120;16268;65254;2693;62848;87;65450;65501;0;0
372;1521877842;1875;65286;65128;16301;65233;2676;62825;96;65452;65523;0;0
373;1521877842;2225;65272;65119;16322;65231;2700;62797;88;65434;65503;0;0
374;1521877842;1833;65269;65108;16271;65206;2676;62815;68;65415;9;0;0
375;1521877842;2180;65266;65114;16311;65183;2644;62828;85;65441;65518;0;0
376;1521877842;1751;65265;65113;16307;65207;2715;62838;58;65438;65510;0;0
377;1521877842;2324;65280;65108;16290;65194;2704;62854;71;65449;65492;0;0
378;1521877842;1775;65263;65098;16300;65186;2700;62825;94;65442;65512;0;0
379;1521877843;2185;65269;65119;16279;65222;2657;62778;57;65447;65499;0;0
380;1521877843;2102;65273;65117;16309;65214;2666;62817;79;65436;65515;0;0
381;1521877843;1880;65271;65110;16255;65221;2695;62817;84;65429;65502;0;0
382;1521877843;2173;65276;65125;16311;65175;2694;62822;73;65425;65514;0;0
383;1521877843;1892;65270;65102;16315;65201;2690;62841;42;65445;65499;0;0
384;1521877843;2233;65261;65116;16280;65222;2700;62827;49;65428;65511;0;0
385;1521877843;1818;65272;65121;16301;65218;2719;62832;68;65442;65492;0;0
386;1521877843;2232;65247;65110;16300;65224;2723;62852;61;65447;65506;0;0
387;1521877843;1680;65300;65127;16298;65199;2723;62810;86;65446;65514;0;0
388;1521877844;2375;65255;65119;16318;65206;2685;62874;60;65448;65505;0;0
389;1521877844;1629;65272;65119;16292;65221;2694;62881;97;65446;65502;0;0
390;1521877844;1905;65285;65127;16297;65209;2694;62866;74;65458;65502;0;0
391;1521877844;2095;65265;65108;16290;65215;2671;62864;69;65448;65508;0;0
392;1521877844;1765;65252;65117;16300;65204;2687;62813;68;65427;65526;0;0
393;1521877844;2214;65273;65115;16343;65201;2712;62847;89;65442;65509;0;0
394;1521877844;1752;65296;65116;16287;65210;2719;62862;84;65426;65477;0;0
395;1521877844;2241;65273;65114;16292;65242;2685;62854;75;65439;65489;0;0
396;1521877844;1748;65271;65106;16310;65252;2653;62808;85;65444;65520;0;0
397;1521877844;2193;65297;65129;16273;65241;2684;62874;95;65448;65504;0;0
398;1521877845;1781;65278;65106;16287;65267;2659;62844;124;65425;65533;0;0
399;1521877845;2269;65280;65125;16304;65224;2698;62817;65;65435;65503;0;0
400;1521877845;2105;65275;65111;16345;65225;2668;62853;86;65445;65508;0;0
401;1521877845;1893;65265;65099;16289;65200;2699;62840;75;65450;65500;0;0
402;1521877845;2158;65275;65126;16332;65194;2698;62801;93;65430;65509;0;0
403;1521877845;1847;65255;65107;16295;65209;2709;62826;80;65439;65495;0;0
404;1521877845;2102;65269;65103;16291;65203;2664;62830;48;65431;65493;0;0
405;1521877845;1811;65268;65098;16316;65198;2676;62847;69;65450;65488;0;0
406;1521877845;2205;65293;65121;16322;65219;2689;62864;54;65411;65513;0;0
407;1521877845;1833;65290;65122;16298;65209;2677;62863;64;65435;65484;0;0
408;1521877846;2342;65271;65120;16283;65210;2713;62861;79;65430;65508;0;0
409;1521877846;1694;65277;65120;16300;65227;2691;62785;76;65408;65499;0;0
410;1521877846;1911;65281;65123;16328;65223;2726;62799;77;65435;65518;0;0
411;1521877846;2124;65284;65117;16294;65205;2708;62813;76;65434;65511;0;0
412;1521877846;1962;65257;65102;16320;65221;2714;62813;69;65449;65522;0;0
413;1521877846;2141;65262;65121;16294;65223;2685;62818;76;65427;65496;0;0
414;1521877846;1861;65280;65110;16287;65241;2699;62795;68;65435;65513;0;0
415;1521877846;2221;65270;65113;16349;65184;2653;62817;56;65415;65509;0;0
416;1521877846;1771;65286;65115;16253;65226;2689;62806;53;65436;65517;0;0
417;1521877847;2313;65275;65115;16317;65214;2723;62789;78;65424;65496;0;0
418;1521877847;1673;65279;65111;16319;65208;2673;62835;68;65456;65497;0;0
419;1521877847;2331;65263;65114;16312;65198;2681;62847;61;65434;65525;0;0
420;1521877847;1644;65266;65107;16296;65185;2667;62800;66;65447;65486;0;0
421;1521877847;1736;65278;65127;16274;65183;2640;62749;86;65420;65524;0;0
422;1521877847;2151;65282;65114;16309;65207;2698;62816;69;65446;65507;0;0
423;1521877847;1759;65271;65106;16315;65178;2661;62768;79;65438;65510;0;0
424;1521877847;2164;65273;65107;16295;65199;2705;62794;54;65460;65509;0;0
425;1521877847;1801;65275;65113;16303;65213;2666;62844;58;65408;65517;0;0
426;1521877847;2200;65281;65118;16294;65216;2680;62832;88;65419;65477;0;0
427;1521877848;1793;65290;65114;16327;65199;2670;62823;80;65432;65514;0;0
428;1521877848;2164;65263;65118;16296;65202;2654;62793;81;65462;65509;0;0
429;1521877848;1670;65272;65121;16276;65219;2655;62800;77;65402;65524;0;0
430;1521877848;1945;65259;65108;16311;65224;2663;62851;101;65432;65516;0;0
431;1521877848;2105;65270;65103;16326;65214;2653;62829;55;65424;65482;0;0
432;1521877848;1919;65274;65107;16310;65187;2665;62815;66;65456;65524;0;0
433;1521877848;2097;65265;65131;16306;65210;2647;62757;88;65425;65503;0;0
434;1521877848;1881;65274;65113;16270;65234;2672;62800;67;65425;65498;0;0
435;1521877848;2183;65284;65110;16350;65237;2673;62832;62;65441;65503;0;0
436;1521877849;1856;65287;65109;16281;65198;2665;62788;66;65426;65529;0;0
437;1521877849;2289;65300;65114;16300;65185;2693;62805;59;65424;65508;0;0
438;1521877849;1679;65282;65102;16318;65212;2695;62839;87;65427;65514;0;0
439;1521877849;2321;65266;65125;16304;65232;2690;62822;76;65432;65502;0;0
440;1521877849;1639;65281;65115;16306;65251;2682;62846;74;65450;65519;0;0
441;1521877849;1842;65282;65115;16273;65247;2711;62813;79;65441;65521;0;0
442;1521877849;2120;65281;65129;16322;65214;2705;62819;120;65443;65505;0;0
443;1521877849;1881;65278;65122;16344;65230;2666;62823;93;65446;65518;0;0
444;1521877849;2164;65272;65103;16293;65229;2653;62817;38;65432;65522;0;0
445;1521877849;1738;65271;65131;16307;65225;2678;62829;86;65440;65521;0;0
446;1521877850;2244;65264;65127;16299;65226;2653;62842;93;65435;65493;0;0
447;1521877850;1719;65282;65115;16323;65219;2684;62855;73;65448;65513;0;0
448;1521877850;2306;65272;65115;16308;65260;2691;62820;75;65444;15;0;0
449;1521877850;1760;65273;65112;16294;65287;2715;62818;66;65444;65528;0;0
450;1521877850;1778;65264;65120;16311;65267;2662;62838;77;65429;65500;0;0
451;1521877850;2154;65273;65111;16298;65246;2655;62831;91;65438;65522;0;0
452;1521877850;1772;65528;65101;16302;65244;2689;62822;73;65416;65516;0;0
453;1521877850;2102;65291;65120;16287;65258;2687;62818;61;65454;65498;0;0
454;1521877850;1862;65532;65092;16262;65254;2727;62859;87;65419;10;0;0
455;1521877850;2134;65274;65105;16297;65236;2717;62846;67;65429;65524;0;0
456;1521877851;1825;65273;65119;16300;65256;2688;62832;92;65420;65526;0;0
457;1521877851;2114;65277;65101;16325;65236;2698;62814;72;65459;65533;0;0
458;1521877851;1712;65287;65117;16337;65229;2677;62833;67;65441;65489;0;0
459;1521877851;2365;65274;65101;16293;65203;2701;62813;74;65464;65504;0;0
460;1521877851;1735;65266;65121;16329;65246;2681;62820;90;65424;65534;0;0
461;1521877851;1956;65280;65094;16289;65267;2696;62818;76;65457;65509;0;0
462;1521877851;2141;65283;65116;16299;65224;2703;62840;69;65438;65518;0;0
463;1521877851;1872;65264;65107;16282;65230;2692;62792;60;65429;65503;0;0
464;1521877851;2168;65269;65114;16278;65222;2711;62832;71;65445;65512;0;0
465;1521877852;1895;65281;65138;16296;65220;2688;62806;72;65432;4;0;0
466;1521877852;2251;65262;65108;16311;65233;2706;62842;76;65417;4;0;0
467;1521877852;1792;65273;65126;16280;65222;2726;62845;63;65454;65518;0;0
468;1521877852;2247;65267;65133;16357;65258;2697;62842;69;65425;65518;0;0
469;1521877852;1691;65275;65108;16305;65251;2701;62810;75;65452;65522;0;0
470;1521877852;2404;65281;65116;16300;65221;2682;62827;84;65438;65490;0;0
471;1521877852;2051;65254;65104;16306;65259;2697;62849;102;65452;65530;0;0
472;1521877852;1871;65289;65102;16268;65228;2698;62792;103;65431;65502;0;0
473;1521877852;2107;65267;65114;16326;65238;2710;62824;78;65456;65513;0;0
474;1521877852;1737;65281;65112;16278;65233;2719;62810;79;65431;65510;0;0
475;1521877853;2172;65261;65117;16266;65208;2726;62805;85;65450;65520;0;0
476;1521877853;1696;65261;65113;16328;65241;2700;62840;89;65422;8;0;0
477;1521877853;2215;65291;65123;16242;65206;2729;62805;75;65460;65514;0;0
478;1521877853;1755;65261;65124;16317;65220;2698;62805;92;65450;0;0;0
479;1521877853;2219;65297;65096;16258;65167;2713;62762;101;65441;65515;0;0
480;1521877853;1777;65256;65117;16315;65230;2693;62796;82;65438;65513;0;0
481;1521877853;2308;65286;65084;16298;65188;2670;62817;52;65426;65507;0;0
482;1521877853;2092;65252;65116;16297;65182;2700;62767;85;65434;65520;0;0
483;1521877853;1910;65276;65140;16323;65201;2697;62815;77;65444;65502;0;0
484;1521877854;2176;65270;65121;16292;65207;2713;62813;74;65447;65521;0;0
485;1521877854;1886;65272;65106;16288;65235;2698;62798;92;65453;65487;0;0
486;1521877854;2158;65292;65102;16321;65208;2691;62801;87;65438;65515;0;0
487;1521877854;1794;65282;65115;16347;65213;2692;62781;68;65462;65519;0;0
488;1521877854;2236;65031;65125;16368;65218;2716;62790;81;65441;65509;0;0
489;1521877854;1822;65252;65123;16289;65224;2718;62829;62;65412;65521;0;0
490;1521877854;2335;65297;65125;16294;65210;2700;62807;72;65441;65522;0;0
491;1521877854;1722;65287;65120;16293;65197;2721;62801;74;65425;0;0;0
492;1521877854;1885;65296;65101;16293;65220;2718;62770;74;65447;65534;0;0
493;1521877854;2127;65258;65125;16357;65222;2676;62782;90;65470;65514;0;0
494;1521877855;1926;65291;65116;16257;65199;2693;62755;56;65421;65526;0;0
495;1521877855;2092;65273;65124;16313;65222;2670;62793;53;65425;65514;0;0
496;1521877855;1837;65299;65104;16296;65217;2676;62801;69;65440;65522;0;0
497;1521877855;2217;65304;65115;16305;65239;2688;62796;86;65421;3;0;0
498;1521877855;1665;65278;65113;16320;65222;2707;62780;49;65444;65529;0;0
499;1521877855;2347;65288;65125;16262;65211;2716;62803;81;65471;2;0;0
500;1521877855;1614;65264;65107;16309;65242;2683;62789;67;65434;65508;0;0
501;1521877855;2342;65292;65091;16295;65230;2675;62782;58;65439;65506;0;0
502;1521877855;2025;65271;65123;16283;65235;2667;62845;73;65438;65516;0;0
503;1521877855;1841;65283;65109;16330;65216;2703;62795;88;65438;65512;0;0
504;1521877856;2157;65288;65105;16292;65231;2688;62784;89;65432;65504;0;0
505;1521877856;1707;65292;65138;16292;65231;2686;62833;44;65437;65498;0;0
506;1521877856;2193;65256;65106;16297;65278;2655;62822;70;65443;65497;0;0
507;1521877856;1783;65284;65124;16296;65255;2676;62834;67;65434;65511;0;0
508;1521877856;2259;65264;65096;16297;65245;2667;62825;98;65430;65505;0;0
509;1521877856;1760;65291;65121;16288;65246;2697;62818;89;65420;65509;0;0
510;1521877856;2304;65268;65108;16301;65248;2677;62807;86;65453;65496;0;0
511;1521877856;1662;65280;65124;16295;65242;2703;62874;90;65433;65518;0;0
512;1521877856;1909;65310;65094;16296;65242;2693;62840;61;65468;65534;0;0
513;1521877857;2184;65264;65113;16335;65254;2667;62824;69;65459;65498;0;0
514;1521877857;1901;65273;65121;16297;65228;2699;62815;45;65447;65492;0;0
515;1521877857;2155;65278;65121;16314;65214;2696;62848;69;65461;65502;0;0
516;1521877857;1854;65258;65109;16330;65207;2688;62832;74;65424;65530;0;0
517;1521877857;2187;65283;65112;16296;65235;2696;62842;76;65436;65502;0;0
518;1521877857;1803;65276;65111;16317;65194;2666;62829;50;65454;65509;0;0
519;1521877857;2338;65303;65114;16245;65179;2666;62855;81;65429;65497;0;0
520;1521877857;1682;65264;65114;16321;65163;2680;62860;72;65426;65507;0;0
521;1521877857;1914;65267;65119;16313;65197;2690;62810;84;65443;65518;0;0
522;1521877857;1503;65299;65122;16299;65193;2668;62822;57;65448;65511;0;0
523;1521877858;1959;65274;65128;16303;65190;2670;62795;67;65413;65498;0;0
524;1521877858;2049;65271;65097;16275;65207;2682;62823;81;65437;65514;0;0
525;1521877858;1842;65300;65121;16295;65241;2686;62815;117;65445;65535;0;0
526;1521877858;2172;65260;65103;16313;65226;2696;62790;85;65451;65529;0;0
527;1521877858;1641;65258;65116;16301;65187;2667;62782;96;65439;65506;0;0
528;1521877858;2213;65261;65109;16303;65212;2693;62800;61;65422;65507;0;0
529;1521877858;1670;65303;65122;16287;65214;2706;62791;87;65414;65534;0;0
530;1521877858;2277;65269;65102;16305;65188;2664;62814;74;65440;65504;0;0
531;1521877858;1680;65283;65109;16319;65254;2684;62826;67;65423;65518;0;0
532;1521877859;1933;65271;65114;16291;65211;2677;62840;76;65444;65509;0;0
533;1521877859;2136;65283;65123;16316;65216;2659;62800;56;65437;65502;0;0
534;1521877859;1812;65277;65106;16299;65236;2673;62820;81;65455;65488;0;0
535;1521877859;2139;65280;65121;16324;65203;2685;62767;96;65441;65514;0;0
536;1521877859;1855;65280;65100;16299;65237;2695;62762;63;65433;65501;0;0
537;1521877859;2278;65271;65130;16271;65217;2673;62781;93;65438;65502;0;0
538;1521877859;1836;65279;65126;16324;65223;2691;62788;57;65413;65503;0;0
539;1521877859;2243;65256;65095;16262;65205;2661;62761;60;65427;65487;0;0
540;1521877859;1733;65273;65127;16329;65181;2661;62761;64;65433;65497;0;0
541;1521877859;2195;65271;65124;16294;65195;2671;62809;70;65432;65506;0;0
542;1521877860;1685;65286;65119;16323;65172;2709;62807;95;65413;65506;0;0
543;1521877860;1873;65260;65107;16294;65203;2691;62828;68;65435;65500;0;0
544;1521877860;2078;65274;65098;16282;65188;2666;62757;90;65437;65506;0;0
545;1521877860;1871;65280;65129;16297;65199;2679;62770;56;65425;65532;0;0
546;1521877860;2094;65262;65104;16318;65214;2688;62799;65;65424;65513;0;0
547;1521877860;1847;65282;65103;16292;65178;2663;62881;67;65421;65517;0;0
548;1521877860;2211;65256;65108;16267;65191;2674;62825;71;65433;230;0;0
549;1521877860;1799;65292;65118;16295;65177;2690;62846;79;65442;65526;0;0
550;1521877860;2282;65282;65134;16310;65165;2685;62827;57;65418;65501;0;0
551;1521877860;1659;65262;65099;16298;65208;2669;62863;80;65411;65487;0;0
552;1521877861;2036;65286;65109;16291;65232;2704;62859;62;65415;65509;0;0
553;1521877861;1970;65276;65113;16306;65194;2653;62840;93;65456;65524;0;0
554;1521877861;1896;65272;65115;16287;65190;2653;62850;78;65432;65531;0;0
555;1521877861;2177;65290;65106;16266;65151;2697;62793;102;65471;18;0;0
556;1521877861;1944;65281;65111;16292;65182;2713;62862;57;65443;2;0;0
557;1521877861;2180;65274;65120;16295;65190;2714;62842;63;65434;65520;0;0
558;1521877861;1797;65265;65105;16350;65161;2697;62856;83;65420;65502;0;0
559;1521877861;2243;65266;65106;16281;65210;2679;62809;95;65431;65520;0;0
560;1521877861;1719;65295;65113;16316;65194;2639;62776;49;65434;65504;0;0
561;1521877862;2380;65263;65106;16293;65190;2701;62814;47;65428;65510;0;0
562;1521877862;2102;65278;65103;16306;65206;2677;62821;75;65421;65510;0;0
563;1521877862;1814;65277;65116;16306;65186;2660;62779;43;65435;65519;0;0
564;1521877862;2086;65262;65103;16272;65194;2685;62830;55;65428;65522;0;0
565;1521877862;1869;65281;65105;16294;65241;2673;62765;55;65433;65502;0;0
566;1521877862;2211;65277;65110;16313;65222;2683;62781;57;65450;65517;0;0
567;1521877862;1832;65303;65106;16299;65219;2686;62789;88;65435;65510;0;0
568;1521877862;2266;65299;65122;16310;65243;2641;62776;75;65442;65512;0;0
569;1521877862;1807;65286;65109;16300;65225;2679;62843;69;65449;65521;0;0
570;1521877862;2124;65279;65108;16315;65232;2676;62822;58;65432;65501;0;0
571;1521877863;1770;65265;65099;16306;65195;2627;62828;103;65427;65515;0;0
572;1521877863;2271;65265;65114;16293;65215;2659;62841;68;65433;65491;0;0
573;1521877863;2111;65271;65118;16312;65253;2683;62854;85;65439;65508;0;0
574;1521877863;1887;65261;65096;16278;65230;2656;62849;91;65437;65486;0;0
575;1521877863;1996;65273;65107;16294;65202;2654;62789;64;65452;65517;0;0
576;1521877863;1895;65527;65107;16292;65197;2660;62833;59;65444;65514;0;0
577;1521877863;2055;65260;65120;16304;65226;2667;62788;66;65425;65508;0;0
578;1521877863;1815;65259;65127;16303;65206;2658;62822;102;65472;65516;0;0
579;1521877863;2221;65285;65113;16279;65236;2646;62820;71;65447;65498;0;0
580;1521877864;1759;65286;65117;16307;65209;2638;62827;76;65450;65512;0;0
581;1521877864;2344;65269;65112;16298;65220;2630;62793;59;65423;65514;0;0
582;1521877864;1600;65290;65114;16299;65212;2654;62808;75;65420;65496;0;0
583;1521877864;2360;65283;65121;16289;65228;2662;62854;56;65442;65491;0;0
584;1521877864;2099;65275;65124;16291;65239;2619;62865;70;65430;65513;0;0
585;1521877864;1929;65267;65105;16296;65229;2653;62823;67;65454;65507;0;0
586;1521877864;2183;65270;65105;16295;65214;2662;62807;57;65424;3;0;0
587;1521877864;1862;65275;65119;16297;65251;2654;62821;81;65451;65504;0;0
588;1521877864;2195;65269;65118;16316;65210;2678;62776;71;65446;65528;0;0
589;1521877864;1786;65278;65106;16313;65200;2678;62828;52;65425;65513;0;0
590;1521877865;2279;65270;65116;16312;65195;2657;62785;80;65435;65494;0;0
591;1521877865;1732;65261;65110;16315;65168;2673;62814;76;65440;65529;0;0
592;1521877865;2358;65286;65119;16319;65172;2693;62821;92;65433;65496;0;0
593;1521877865;1772;65262;65098;16318;65180;2676;62825;57;65445;65517;0;0
594;1521877865;1807;65273;65117;16274;65229;2663;62796;92;65429;65520;0;0
595;1521877865;2175;65274;65107;16294;65196;2705;62788;63;65442;65534;0;0
596;1521877865;1809;65274;65107;16317;65225;2648;62842;45;65432;65509;0;0
597;1521877865;2113;65278;65104;16318;65193;2665;62801;62;65448;65525;0;0
598;1521877865;1834;65263;65127;16317;65200;2665;62819;83;65414;65514;0;0
599;1521877865;2128;65272;65113;16290;65206;2642;62792;75;65452;65495;0;0
600;1521877866;1806;65278;65109;16299;65236;2653;62781;58;65434;65509;0;0
